"rt","stimulus","response","task","condition","random","trial_type","trial_index","time_elapsed","internal_node_id","match","hp_test"
"2607","jsPsych/img/25_big.jpg","f","test","up","0","image-keyboard-response","42","14177184","0.0-12.0-2.0","congruent","2"
"5608.5","jsPsych/img/07_big.jpg","j","test","down","0","image-keyboard-response","45","14185406","0.0-12.0-2.1","incongruent","2"
"3499.699999988079","jsPsych/img/04_big.jpg","j","test","down","0","image-keyboard-response","48","14192018","0.0-12.0-2.2","incongruent","2"
"3183.600000023842","jsPsych/img/19_big.jpg","f","test","up","0","image-keyboard-response","51","14197813","0.0-12.0-2.3","incongruent","2"
"3221","jsPsych/img/12_big.jpg","j","test","down","0","image-keyboard-response","54","14205147","0.0-12.0-2.4","incongruent","2"
"5274.099999964237","jsPsych/img/15_big.jpg","f","test","down","0","image-keyboard-response","57","14214283","0.0-12.0-2.5","incongruent","2"
"1340.6000000238419","jsPsych/img/06_big.jpg","j","test","down","0","image-keyboard-response","60","14218488","0.0-12.0-2.6","incongruent","2"
"6136.300000011921","jsPsych/img/10_big.jpg","j","test","down","0","image-keyboard-response","63","14227486","0.0-12.0-2.7","congruent","2"
"3777","jsPsych/img/34_big.jpg","f","test","up","0","image-keyboard-response","66","14234876","0.0-12.0-2.8","congruent","2"
"1841.3999999761581","jsPsych/img/27_big.jpg","f","test","up","0","image-keyboard-response","69","14239834","0.0-12.0-2.9","congruent","2"
"2297","jsPsych/img/33_big.jpg","j","test","up","0","image-keyboard-response","72","14245743","0.0-12.0-2.10","congruent","2"
"3194.599999964237","jsPsych/img/09_big.jpg","f","test","down","0","image-keyboard-response","75","14252299","0.0-12.0-2.11","incongruent","2"
"1912.8999999761581","jsPsych/img/01_big.jpg","f","test","down","0","image-keyboard-response","78","14258073","0.0-12.0-2.12","congruent","2"
"2483.900000035763","jsPsych/img/03_big.jpg","f","test","down","0","image-keyboard-response","81","14263418","0.0-12.0-2.13","incongruent","2"
"1775.5","jsPsych/img/16_big.jpg","f","test","down","0","image-keyboard-response","84","14268059","0.0-12.0-2.14","incongruent","2"
"1719.800000011921","jsPsych/img/28_big.jpg","j","test","up","0","image-keyboard-response","87","14273391","0.0-12.0-2.15","incongruent","2"
"5051.300000011921","jsPsych/img/23_big.jpg","f","test","up","0","image-keyboard-response","90","14282556","0.0-12.0-2.16","incongruent","2"
"2350.800000011921","jsPsych/img/14_big.jpg","f","test","down","0","image-keyboard-response","93","14287520","0.0-12.0-2.17","congruent","2"
"2854.600000023842","jsPsych/img/26_big.jpg","j","test","up","0","image-keyboard-response","96","14292989","0.0-12.0-2.18","congruent","2"
"3517.099999964237","jsPsych/img/35_big.jpg","j","test","up","0","image-keyboard-response","99","14299619","0.0-12.0-2.19","congruent","2"
"2753.300000011921","jsPsych/img/29_big.jpg","j","test","up","0","image-keyboard-response","102","14306488","0.0-12.0-2.20","incongruent","2"
"1720.199999988079","jsPsych/img/21_big.jpg","j","test","up","0","image-keyboard-response","105","14311321","0.0-12.0-2.21","incongruent","2"
"3332.599999964237","jsPsych/img/02_big.jpg","j","test","down","0","image-keyboard-response","108","14318768","0.0-12.0-2.22","congruent","2"
"3114.199999988079","jsPsych/img/05_big.jpg","f","test","down","0","image-keyboard-response","111","14325494","0.0-12.0-2.23","incongruent","2"
"3001.399999976158","jsPsych/img/11_big.jpg","f","test","down","0","image-keyboard-response","114","14332607","0.0-12.0-2.24","incongruent","2"
"3127.5","jsPsych/img/36_big.jpg","j","test","up","0","image-keyboard-response","117","14338848","0.0-12.0-2.25","congruent","2"
"2539.199999988079","jsPsych/img/30_big.jpg","f","test","up","0","image-keyboard-response","120","14345500","0.0-12.0-2.26","incongruent","2"
"1353.300000011921","jsPsych/img/22_big.jpg","f","test","up","0","image-keyboard-response","123","14350966","0.0-12.0-2.27","congruent","2"
"1721.8999999761581","jsPsych/img/24_big.jpg","f","test","up","0","image-keyboard-response","126","14355798","0.0-12.0-2.28","congruent","2"
"3119.699999988079","jsPsych/img/18_big.jpg","f","test","down","0","image-keyboard-response","129","14361782","0.0-12.0-2.29","congruent","2"
"3072.100000023842","jsPsych/img/32_big.jpg","f","test","up","0","image-keyboard-response","132","14367467","0.0-12.0-2.30","incongruent","2"
"2378","jsPsych/img/13_big.jpg","f","test","down","0","image-keyboard-response","135","14372704","0.0-12.0-2.31","incongruent","2"
"3146.4000000059605","jsPsych/img/34_big.jpg","f","test","up","0","image-keyboard-response","42","201241","0.0-12.0-2.0","congruent","2"
"2840.7000000178814","jsPsych/img/13_big.jpg","f","test","down","0","image-keyboard-response","45","207690","0.0-12.0-2.1","incongruent","2"
"1715.7999999821186","jsPsych/img/21_big.jpg","j","test","up","0","image-keyboard-response","48","212763","0.0-12.0-2.2","congruent","2"
"568.6999999880791","jsPsych/img/09_big.jpg","f","test","down","0","image-keyboard-response","51","215939","0.0-12.0-2.3","incongruent","2"
"1089.5","jsPsych/img/33_big.jpg","j","test","up","0","image-keyboard-response","54","220386","0.0-12.0-2.4","incongruent","2"
"625.6000000238419","jsPsych/img/23_big.jpg","f","test","up","0","image-keyboard-response","57","224368","0.0-12.0-2.5","congruent","2"
"574.9000000059605","jsPsych/img/35_big.jpg","j","test","up","0","image-keyboard-response","60","228798","0.0-12.0-2.6","congruent","2"
"31.5","jsPsych/img/22_big.jpg","f","test","up","0","image-keyboard-response","63","232435","0.0-12.0-2.7","incongruent","2"
"1796.4000000059605","jsPsych/img/15_big.jpg","j","test","down","0","image-keyboard-response","66","237086","0.0-12.0-2.8","congruent","2"
"378.89999997615814","jsPsych/img/02_big.jpg","f","test","down","0","image-keyboard-response","69","240575","0.0-12.0-2.9","congruent","2"
"455.40000000596046","jsPsych/img/27_big.jpg","j","test","up","0","image-keyboard-response","72","244892","0.0-12.0-2.10","congruent","2"
"395.7000000178814","jsPsych/img/03_big.jpg","f","test","down","0","image-keyboard-response","75","249142","0.0-12.0-2.11","incongruent","2"
"349.09999999403954","jsPsych/img/25_big.jpg","j","test","up","0","image-keyboard-response","78","252594","0.0-12.0-2.12","congruent","2"
"357.40000000596046","jsPsych/img/05_big.jpg","j","test","down","0","image-keyboard-response","81","255807","0.0-12.0-2.13","congruent","2"
"199.69999998807907","jsPsych/img/24_big.jpg","f","test","up","0","image-keyboard-response","84","259869","0.0-12.0-2.14","congruent","2"
"149","jsPsych/img/12_big.jpg","j","test","down","0","image-keyboard-response","87","262874","0.0-12.0-2.15","incongruent","2"
"210.19999998807907","jsPsych/img/29_big.jpg","j","test","up","0","image-keyboard-response","90","265687","0.0-12.0-2.16","incongruent","2"
"48.5","jsPsych/img/18_big.jpg","f","test","down","0","image-keyboard-response","93","269591","0.0-12.0-2.17","incongruent","2"
"65.5","jsPsych/img/07_big.jpg","j","test","down","0","image-keyboard-response","96","273510","0.0-12.0-2.18","congruent","2"
"467.59999999403954","jsPsych/img/30_big.jpg","f","test","up","0","image-keyboard-response","99","278084","0.0-12.0-2.19","incongruent","2"
"86.2000000178814","jsPsych/img/04_big.jpg","j","test","down","0","image-keyboard-response","102","281526","0.0-12.0-2.20","incongruent","2"
"564.0999999940395","jsPsych/img/26_big.jpg","f","test","up","0","image-keyboard-response","105","284696","0.0-12.0-2.21","incongruent","2"
"333.2000000178814","jsPsych/img/19_big.jpg","j","test","up","0","image-keyboard-response","108","288887","0.0-12.0-2.22","congruent","2"
"338.40000000596046","jsPsych/img/28_big.jpg","j","test","up","0","image-keyboard-response","111","292587","0.0-12.0-2.23","congruent","2"
"324.2000000178814","jsPsych/img/10_big.jpg","f","test","down","0","image-keyboard-response","114","295522","0.0-12.0-2.24","congruent","2"
"338","jsPsych/img/16_big.jpg","j","test","down","0","image-keyboard-response","117","298967","0.0-12.0-2.25","congruent","2"
"430.59999999403954","jsPsych/img/06_big.jpg","j","test","down","0","image-keyboard-response","120","302503","0.0-12.0-2.26","incongruent","2"
"200.19999998807907","jsPsych/img/01_big.jpg","f","test","down","0","image-keyboard-response","123","305811","0.0-12.0-2.27","incongruent","2"
"236.2999999821186","jsPsych/img/14_big.jpg","f","test","down","0","image-keyboard-response","126","309656","0.0-12.0-2.28","incongruent","2"
"270","jsPsych/img/11_big.jpg","f","test","down","0","image-keyboard-response","129","313284","0.0-12.0-2.29","congruent","2"
"236.90000000596046","jsPsych/img/36_big.jpg","f","test","up","0","image-keyboard-response","132","316376","0.0-12.0-2.30","congruent","2"
"262.5","jsPsych/img/32_big.jpg","j","test","up","0","image-keyboard-response","135","320745","0.0-12.0-2.31","incongruent","2"
"2788.599999997765","jsPsych/img/13_big.jpg","f","test","down","0","image-keyboard-response","42","217258","0.0-12.0-2.0","congruent","2"
"4817.400000002235","jsPsych/img/06_big.jpg","f","test","down","0","image-keyboard-response","45","224683","0.0-12.0-2.1","incongruent","2"
"7833.89999999851","jsPsych/img/24_big.jpg","f","test","up","0","image-keyboard-response","48","236373","0.0-12.0-2.2","incongruent","2"
"1713.300000000745","jsPsych/img/22_big.jpg","f","test","up","0","image-keyboard-response","51","240945","0.0-12.0-2.3","congruent","2"
"1519.800000000745","jsPsych/img/21_big.jpg","j","test","up","0","image-keyboard-response","54","245569","0.0-12.0-2.4","incongruent","2"
"1172","jsPsych/img/19_big.jpg","f","test","up","0","image-keyboard-response","57","249850","0.0-12.0-2.5","incongruent","2"
"3698.199999999255","jsPsych/img/34_big.jpg","f","test","up","0","image-keyboard-response","60","256155","0.0-12.0-2.6","congruent","2"
"2621.5","jsPsych/img/28_big.jpg","j","test","up","0","image-keyboard-response","63","262636","0.0-12.0-2.7","incongruent","2"
"1826.2999999970198","jsPsych/img/33_big.jpg","f","test","up","0","image-keyboard-response","66","268568","0.0-12.0-2.8","incongruent","2"
"5383","jsPsych/img/12_big.jpg","f","test","down","0","image-keyboard-response","69","276810","0.0-12.0-2.9","congruent","2"
"2233.89999999851","jsPsych/img/26_big.jpg","j","test","up","0","image-keyboard-response","72","282402","0.0-12.0-2.10","incongruent","2"
"1248.5","jsPsych/img/36_big.jpg","f","test","up","0","image-keyboard-response","75","286258","0.0-12.0-2.11","congruent","2"
"1250.300000000745","jsPsych/img/07_big.jpg","j","test","down","0","image-keyboard-response","78","291612","0.0-12.0-2.12","incongruent","2"
"2056.2999999970198","jsPsych/img/29_big.jpg","f","test","up","0","image-keyboard-response","81","296778","0.0-12.0-2.13","incongruent","2"
"2354.900000002235","jsPsych/img/32_big.jpg","j","test","up","0","image-keyboard-response","84","301988","0.0-12.0-2.14","congruent","2"
"3288.800000000745","jsPsych/img/16_big.jpg","f","test","down","0","image-keyboard-response","87","308883","0.0-12.0-2.15","incongruent","2"
"3148","jsPsych/img/11_big.jpg","j","test","down","0","image-keyboard-response","90","316143","0.0-12.0-2.16","congruent","2"
"3204.39999999851","jsPsych/img/05_big.jpg","f","test","down","0","image-keyboard-response","93","322952","0.0-12.0-2.17","incongruent","2"
"1825.6000000014901","jsPsych/img/15_big.jpg","j","test","down","0","image-keyboard-response","96","327383","0.0-12.0-2.18","incongruent","2"
"2347.599999997765","jsPsych/img/01_big.jpg","f","test","down","0","image-keyboard-response","99","333089","0.0-12.0-2.19","congruent","2"
"2662.2000000029802","jsPsych/img/03_big.jpg","j","test","down","0","image-keyboard-response","102","339610","0.0-12.0-2.20","incongruent","2"
"1776.7999999970198","jsPsych/img/14_big.jpg","j","test","down","0","image-keyboard-response","105","344998","0.0-12.0-2.21","incongruent","2"
"1458.5","jsPsych/img/30_big.jpg","f","test","up","0","image-keyboard-response","108","350063","0.0-12.0-2.22","incongruent","2"
"1039.5","jsPsych/img/18_big.jpg","j","test","down","0","image-keyboard-response","111","353711","0.0-12.0-2.23","congruent","2"
"1360","jsPsych/img/23_big.jpg","f","test","up","0","image-keyboard-response","114","358927","0.0-12.0-2.24","incongruent","2"
"2437.60000000149","jsPsych/img/09_big.jpg","f","test","down","0","image-keyboard-response","117","365473","0.0-12.0-2.25","incongruent","2"
"1516.199999999255","jsPsych/img/25_big.jpg","j","test","up","0","image-keyboard-response","120","369596","0.0-12.0-2.26","congruent","2"
"1355.800000000745","jsPsych/img/27_big.jpg","f","test","up","0","image-keyboard-response","123","374312","0.0-12.0-2.27","incongruent","2"
"2464.10000000149","jsPsych/img/04_big.jpg","j","test","down","0","image-keyboard-response","126","379888","0.0-12.0-2.28","congruent","2"
"1414.5","jsPsych/img/35_big.jpg","f","test","up","0","image-keyboard-response","129","384164","0.0-12.0-2.29","incongruent","2"
"3151.300000000745","jsPsych/img/02_big.jpg","j","test","down","0","image-keyboard-response","132","390423","0.0-12.0-2.30","incongruent","2"
"3065.199999999255","jsPsych/img/10_big.jpg","f","test","down","0","image-keyboard-response","135","396344","0.0-12.0-2.31","incongruent","2"
"2113.699999988079","jsPsych/img/03_big.jpg","j","test","down","0","image-keyboard-response","42","95066","0.0-12.0-2.0","congruent","2"
"415.7999999821186","jsPsych/img/14_big.jpg","j","test","down","0","image-keyboard-response","45","99366","0.0-12.0-2.1","congruent","2"
"279.19999998807907","jsPsych/img/19_big.jpg","j","test","up","0","image-keyboard-response","48","103268","0.0-12.0-2.2","incongruent","2"
"778.6999999880791","jsPsych/img/34_big.jpg","f","test","up","0","image-keyboard-response","51","106654","0.0-12.0-2.3","incongruent","2"
"556.1999999880791","jsPsych/img/01_big.jpg","j","test","down","0","image-keyboard-response","54","110342","0.0-12.0-2.4","incongruent","2"
"229.5","jsPsych/img/11_big.jpg","j","test","down","0","image-keyboard-response","57","113433","0.0-12.0-2.5","incongruent","2"
"413.7000000178814","jsPsych/img/36_big.jpg","f","test","up","0","image-keyboard-response","60","116457","0.0-12.0-2.6","incongruent","2"
"157.69999998807907","jsPsych/img/13_big.jpg","j","test","down","0","image-keyboard-response","63","119222","0.0-12.0-2.7","congruent","2"
"462.39999997615814","jsPsych/img/22_big.jpg","j","test","up","0","image-keyboard-response","66","122300","0.0-12.0-2.8","incongruent","2"
"231.90000000596046","jsPsych/img/26_big.jpg","j","test","up","0","image-keyboard-response","69","126413","0.0-12.0-2.9","congruent","2"
"108","jsPsych/img/10_big.jpg","f","test","down","0","image-keyboard-response","72","129387","0.0-12.0-2.10","incongruent","2"
"261.09999999403954","jsPsych/img/02_big.jpg","j","test","down","0","image-keyboard-response","75","132278","0.0-12.0-2.11","incongruent","2"
"0.7999999821186066","jsPsych/img/05_big.jpg","f","test","down","0","image-keyboard-response","78","134902","0.0-12.0-2.12","congruent","2"
"441","jsPsych/img/04_big.jpg","j","test","down","0","image-keyboard-response","81","139461","0.0-12.0-2.13","incongruent","2"
"584.6999999880791","jsPsych/img/32_big.jpg","j","test","up","0","image-keyboard-response","84","144159","0.0-12.0-2.14","congruent","2"
"1100.800000011921","jsPsych/img/27_big.jpg","j","test","up","0","image-keyboard-response","87","149379","0.0-12.0-2.15","congruent","2"
"267","jsPsych/img/33_big.jpg","f","test","up","0","image-keyboard-response","90","153263","0.0-12.0-2.16","congruent","2"
"101.80000001192093","jsPsych/img/12_big.jpg","j","test","down","0","image-keyboard-response","93","156993","0.0-12.0-2.17","incongruent","2"
"496.19999998807907","jsPsych/img/30_big.jpg","j","test","up","0","image-keyboard-response","96","160099","0.0-12.0-2.18","incongruent","2"
"267.40000000596046","jsPsych/img/09_big.jpg","j","test","down","0","image-keyboard-response","99","163226","0.0-12.0-2.19","incongruent","2"
"363.30000001192093","jsPsych/img/24_big.jpg","j","test","up","0","image-keyboard-response","102","166454","0.0-12.0-2.20","congruent","2"
"266.80000001192093","jsPsych/img/28_big.jpg","j","test","up","0","image-keyboard-response","105","170587","0.0-12.0-2.21","incongruent","2"
"178.7999999821186","jsPsych/img/29_big.jpg","j","test","up","0","image-keyboard-response","108","174135","0.0-12.0-2.22","incongruent","2"
"257.2999999821186","jsPsych/img/18_big.jpg","f","test","down","0","image-keyboard-response","111","178505","0.0-12.0-2.23","congruent","2"
"164.7000000178814","jsPsych/img/16_big.jpg","j","test","down","0","image-keyboard-response","114","182534","0.0-12.0-2.24","incongruent","2"
"163.2000000178814","jsPsych/img/15_big.jpg","j","test","down","0","image-keyboard-response","117","186555","0.0-12.0-2.25","incongruent","2"
"176.59999999403954","jsPsych/img/21_big.jpg","j","test","up","0","image-keyboard-response","120","189602","0.0-12.0-2.26","incongruent","2"
"260.09999999403954","jsPsych/img/23_big.jpg","j","test","up","0","image-keyboard-response","123","192473","0.0-12.0-2.27","congruent","2"
"168.30000001192093","jsPsych/img/25_big.jpg","j","test","up","0","image-keyboard-response","126","196255","0.0-12.0-2.28","incongruent","2"
"221.60000002384186","jsPsych/img/35_big.jpg","j","test","up","0","image-keyboard-response","129","200587","0.0-12.0-2.29","incongruent","2"
"439.90000000596046","jsPsych/img/06_big.jpg","f","test","down","0","image-keyboard-response","132","204902","0.0-12.0-2.30","congruent","2"
"234.19999998807907","jsPsych/img/07_big.jpg","j","test","down","0","image-keyboard-response","135","209251","0.0-12.0-2.31","congruent","2"
"1398","jsPsych/img/04_big.jpg","f","test","down","0","image-keyboard-response","42","101173","0.0-12.0-2.0","congruent","2"
"1306.7999999821186","jsPsych/img/03_big.jpg","j","test","down","0","image-keyboard-response","45","106341","0.0-12.0-2.1","congruent","2"
"892.0999999940395","jsPsych/img/06_big.jpg","j","test","down","0","image-keyboard-response","48","110096","0.0-12.0-2.2","incongruent","2"
"773.8999999761581","jsPsych/img/11_big.jpg","f","test","down","0","image-keyboard-response","51","113743","0.0-12.0-2.3","congruent","2"
"444.7999999821186","jsPsych/img/16_big.jpg","j","test","down","0","image-keyboard-response","54","118048","0.0-12.0-2.4","congruent","2"
"567.0999999940395","jsPsych/img/18_big.jpg","j","test","down","0","image-keyboard-response","57","122240","0.0-12.0-2.5","congruent","2"
"921.4000000059605","jsPsych/img/02_big.jpg","j","test","down","0","image-keyboard-response","60","126268","0.0-12.0-2.6","incongruent","2"
"1433.4000000059605","jsPsych/img/25_big.jpg","j","test","up","0","image-keyboard-response","63","131331","0.0-12.0-2.7","incongruent","2"
"709.1999999880791","jsPsych/img/05_big.jpg","f","test","down","0","image-keyboard-response","66","135166","0.0-12.0-2.8","incongruent","2"
"1048.300000011921","jsPsych/img/12_big.jpg","j","test","down","0","image-keyboard-response","69","138823","0.0-12.0-2.9","incongruent","2"
"1070.0999999940395","jsPsych/img/33_big.jpg","f","test","up","0","image-keyboard-response","72","142508","0.0-12.0-2.10","incongruent","2"
"158.30000001192093","jsPsych/img/27_big.jpg","j","test","up","0","image-keyboard-response","75","145285","0.0-12.0-2.11","incongruent","2"
"2106.5999999940395","jsPsych/img/28_big.jpg","j","test","up","0","image-keyboard-response","78","150264","0.0-12.0-2.12","incongruent","2"
"418.19999998807907","jsPsych/img/30_big.jpg","j","test","up","0","image-keyboard-response","81","153789","0.0-12.0-2.13","congruent","2"
"411.7000000178814","jsPsych/img/13_big.jpg","j","test","down","0","image-keyboard-response","84","157579","0.0-12.0-2.14","congruent","2"
"365.19999998807907","jsPsych/img/22_big.jpg","j","test","up","0","image-keyboard-response","87","161050","0.0-12.0-2.15","incongruent","2"
"255.69999998807907","jsPsych/img/10_big.jpg","f","test","down","0","image-keyboard-response","90","163928","0.0-12.0-2.16","congruent","2"
"275.39999997615814","jsPsych/img/01_big.jpg","j","test","down","0","image-keyboard-response","93","168073","0.0-12.0-2.17","congruent","2"
"486.5","jsPsych/img/21_big.jpg","j","test","up","0","image-keyboard-response","96","172671","0.0-12.0-2.18","congruent","2"
"617","jsPsych/img/32_big.jpg","j","test","up","0","image-keyboard-response","99","176146","0.0-12.0-2.19","incongruent","2"
"3092","jsPsych/img/34_big.jpg","j","test","up","0","image-keyboard-response","102","182870","0.0-12.0-2.20","incongruent","2"
"594.2999999821186","jsPsych/img/09_big.jpg","j","test","down","0","image-keyboard-response","105","186837","0.0-12.0-2.21","incongruent","2"
"507.7000000178814","jsPsych/img/23_big.jpg","j","test","up","0","image-keyboard-response","108","189965","0.0-12.0-2.22","congruent","2"
"160.80000001192093","jsPsych/img/07_big.jpg","f","test","down","0","image-keyboard-response","111","193253","0.0-12.0-2.23","incongruent","2"
"400.69999998807907","jsPsych/img/19_big.jpg","f","test","up","0","image-keyboard-response","114","197012","0.0-12.0-2.24","congruent","2"
"672","jsPsych/img/29_big.jpg","f","test","up","0","image-keyboard-response","117","201802","0.0-12.0-2.25","congruent","2"
"373.5","jsPsych/img/36_big.jpg","j","test","up","0","image-keyboard-response","120","206306","0.0-12.0-2.26","congruent","2"
"363.2000000178814","jsPsych/img/26_big.jpg","j","test","up","0","image-keyboard-response","123","210050","0.0-12.0-2.27","congruent","2"
"415.5","jsPsych/img/24_big.jpg","j","test","up","0","image-keyboard-response","126","213088","0.0-12.0-2.28","congruent","2"
"245.5","jsPsych/img/14_big.jpg","f","test","down","0","image-keyboard-response","129","216703","0.0-12.0-2.29","congruent","2"
"276","jsPsych/img/15_big.jpg","f","test","down","0","image-keyboard-response","132","219851","0.0-12.0-2.30","congruent","2"
"439","jsPsych/img/35_big.jpg","j","test","up","0","image-keyboard-response","135","224416","0.0-12.0-2.31","incongruent","2"
"4282.199999988079","jsPsych/img/11_big.jpg","j","test","down","0","image-keyboard-response","42","192144","0.0-12.0-2.0","congruent","2"
"1901.4000000059605","jsPsych/img/24_big.jpg","f","test","up","0","image-keyboard-response","45","197905","0.0-12.0-2.1","congruent","2"
"1334.6000000238419","jsPsych/img/26_big.jpg","j","test","up","0","image-keyboard-response","48","202122","0.0-12.0-2.2","congruent","2"
"1957.9000000059605","jsPsych/img/22_big.jpg","j","test","up","0","image-keyboard-response","51","207696","0.0-12.0-2.3","congruent","2"
"2044.7999999821186","jsPsych/img/14_big.jpg","f","test","down","0","image-keyboard-response","54","212601","0.0-12.0-2.4","incongruent","2"
"1515.5","jsPsych/img/02_big.jpg","j","test","down","0","image-keyboard-response","57","217234","0.0-12.0-2.5","congruent","2"
"2078.4000000059605","jsPsych/img/03_big.jpg","j","test","down","0","image-keyboard-response","60","222428","0.0-12.0-2.6","incongruent","2"
"1668.7999999821186","jsPsych/img/10_big.jpg","j","test","down","0","image-keyboard-response","63","227219","0.0-12.0-2.7","congruent","2"
"2530.800000011921","jsPsych/img/27_big.jpg","f","test","up","0","image-keyboard-response","66","232361","0.0-12.0-2.8","incongruent","2"
"1292.699999988079","jsPsych/img/30_big.jpg","j","test","up","0","image-keyboard-response","69","237030","0.0-12.0-2.9","congruent","2"
"2102","jsPsych/img/05_big.jpg","f","test","down","0","image-keyboard-response","72","243009","0.0-12.0-2.10","congruent","2"
"1370.3999999761581","jsPsych/img/21_big.jpg","j","test","up","0","image-keyboard-response","75","247998","0.0-12.0-2.11","congruent","2"
"696.8000000119209","jsPsych/img/28_big.jpg","j","test","up","0","image-keyboard-response","78","252065","0.0-12.0-2.12","incongruent","2"
"1200.300000011921","jsPsych/img/19_big.jpg","f","test","up","0","image-keyboard-response","81","256645","0.0-12.0-2.13","congruent","2"
"1122.0999999940395","jsPsych/img/15_big.jpg","j","test","down","0","image-keyboard-response","84","261146","0.0-12.0-2.14","incongruent","2"
"1371.4000000059605","jsPsych/img/06_big.jpg","j","test","down","0","image-keyboard-response","87","265896","0.0-12.0-2.15","congruent","2"
"565.6999999880791","jsPsych/img/29_big.jpg","f","test","up","0","image-keyboard-response","90","270340","0.0-12.0-2.16","congruent","2"
"1066.2999999821186","jsPsych/img/25_big.jpg","j","test","up","0","image-keyboard-response","93","274513","0.0-12.0-2.17","incongruent","2"
"830.6999999880791","jsPsych/img/33_big.jpg","f","test","up","0","image-keyboard-response","96","278455","0.0-12.0-2.18","incongruent","2"
"1153.9000000059605","jsPsych/img/01_big.jpg","j","test","down","0","image-keyboard-response","99","282976","0.0-12.0-2.19","congruent","2"
"1230.199999988079","jsPsych/img/23_big.jpg","j","test","up","0","image-keyboard-response","102","288331","0.0-12.0-2.20","incongruent","2"
"1244.4000000059605","jsPsych/img/16_big.jpg","j","test","down","0","image-keyboard-response","105","293704","0.0-12.0-2.21","congruent","2"
"805.6999999880791","jsPsych/img/18_big.jpg","f","test","down","0","image-keyboard-response","108","298135","0.0-12.0-2.22","incongruent","2"
"754.7000000178814","jsPsych/img/04_big.jpg","j","test","down","0","image-keyboard-response","111","302268","0.0-12.0-2.23","congruent","2"
"693.8000000119209","jsPsych/img/09_big.jpg","j","test","down","0","image-keyboard-response","114","306594","0.0-12.0-2.24","congruent","2"
"749.8000000119209","jsPsych/img/32_big.jpg","f","test","up","0","image-keyboard-response","117","310469","0.0-12.0-2.25","incongruent","2"
"468.19999998807907","jsPsych/img/12_big.jpg","j","test","down","0","image-keyboard-response","120","315056","0.0-12.0-2.26","incongruent","2"
"832.3000000119209","jsPsych/img/13_big.jpg","j","test","down","0","image-keyboard-response","123","319015","0.0-12.0-2.27","incongruent","2"
"2371.0999999940395","jsPsych/img/07_big.jpg","f","test","down","0","image-keyboard-response","126","324252","0.0-12.0-2.28","incongruent","2"
"1430.5999999940395","jsPsych/img/34_big.jpg","j","test","up","0","image-keyboard-response","129","328557","0.0-12.0-2.29","incongruent","2"
"553","jsPsych/img/36_big.jpg","j","test","up","0","image-keyboard-response","132","333232","0.0-12.0-2.30","incongruent","2"
"452.2000000178814","jsPsych/img/35_big.jpg","j","test","up","0","image-keyboard-response","135","337313","0.0-12.0-2.31","congruent","2"
"1668.3999999910593","jsPsych/img/03_big.jpg","f","test","down","0","image-keyboard-response","42","168052","0.0-12.0-2.0","incongruent","2"
"2207.5","jsPsych/img/36_big.jpg","j","test","up","0","image-keyboard-response","45","172886","0.0-12.0-2.1","congruent","2"
"2891.7000000029802","jsPsych/img/10_big.jpg","j","test","down","0","image-keyboard-response","48","179392","0.0-12.0-2.2","incongruent","2"
"2041.199999988079","jsPsych/img/22_big.jpg","f","test","up","0","image-keyboard-response","51","185315","0.0-12.0-2.3","congruent","2"
"3316.2000000029802","jsPsych/img/33_big.jpg","j","test","up","0","image-keyboard-response","54","192009","0.0-12.0-2.4","congruent","2"
"2465.2000000029802","jsPsych/img/27_big.jpg","f","test","up","0","image-keyboard-response","57","198102","0.0-12.0-2.5","incongruent","2"
"2630.5","jsPsych/img/07_big.jpg","j","test","down","0","image-keyboard-response","60","203610","0.0-12.0-2.6","congruent","2"
"2661.4000000059605","jsPsych/img/19_big.jpg","j","test","up","0","image-keyboard-response","63","209397","0.0-12.0-2.7","incongruent","2"
"3128.5","jsPsych/img/12_big.jpg","f","test","down","0","image-keyboard-response","66","216184","0.0-12.0-2.8","congruent","2"
"3186.5","jsPsych/img/26_big.jpg","f","test","up","0","image-keyboard-response","69","222527","0.0-12.0-2.9","congruent","2"
"4719.70000000298","jsPsych/img/21_big.jpg","j","test","up","0","image-keyboard-response","72","231154","0.0-12.0-2.10","congruent","2"
"2203.2000000029802","jsPsych/img/05_big.jpg","f","test","down","0","image-keyboard-response","75","237224","0.0-12.0-2.11","incongruent","2"
"2916.1000000089407","jsPsych/img/01_big.jpg","j","test","down","0","image-keyboard-response","78","242767","0.0-12.0-2.12","incongruent","2"
"3111.5","jsPsych/img/23_big.jpg","j","test","up","0","image-keyboard-response","81","248769","0.0-12.0-2.13","incongruent","2"
"2266.5","jsPsych/img/25_big.jpg","f","test","up","0","image-keyboard-response","84","254912","0.0-12.0-2.14","incongruent","2"
"3342.699999988079","jsPsych/img/18_big.jpg","j","test","down","0","image-keyboard-response","87","261122","0.0-12.0-2.15","incongruent","2"
"2241.4000000059605","jsPsych/img/16_big.jpg","f","test","down","0","image-keyboard-response","90","265984","0.0-12.0-2.16","incongruent","2"
"2977.2999999970198","jsPsych/img/32_big.jpg","f","test","up","0","image-keyboard-response","93","271576","0.0-12.0-2.17","incongruent","2"
"2322.5999999940395","jsPsych/img/35_big.jpg","f","test","up","0","image-keyboard-response","96","276768","0.0-12.0-2.18","congruent","2"
"3298.4000000059605","jsPsych/img/06_big.jpg","f","test","down","0","image-keyboard-response","99","282688","0.0-12.0-2.19","incongruent","2"
"2776","jsPsych/img/24_big.jpg","j","test","up","0","image-keyboard-response","102","288087","0.0-12.0-2.20","incongruent","2"
"4069.5","jsPsych/img/30_big.jpg","f","test","up","0","image-keyboard-response","105","294763","0.0-12.0-2.21","incongruent","2"
"2621.0999999940395","jsPsych/img/11_big.jpg","f","test","down","0","image-keyboard-response","108","300498","0.0-12.0-2.22","congruent","2"
"1452.7000000029802","jsPsych/img/34_big.jpg","j","test","up","0","image-keyboard-response","111","304571","0.0-12.0-2.23","congruent","2"
"3780.5","jsPsych/img/09_big.jpg","j","test","down","0","image-keyboard-response","114","310968","0.0-12.0-2.24","congruent","2"
"1845.800000011921","jsPsych/img/15_big.jpg","j","test","down","0","image-keyboard-response","117","316176","0.0-12.0-2.25","congruent","2"
"2656.7999999970198","jsPsych/img/13_big.jpg","j","test","down","0","image-keyboard-response","120","321949","0.0-12.0-2.26","congruent","2"
"2422.199999988079","jsPsych/img/29_big.jpg","j","test","up","0","image-keyboard-response","123","327743","0.0-12.0-2.27","congruent","2"
"3011.8999999910593","jsPsych/img/02_big.jpg","j","test","down","0","image-keyboard-response","126","333615","0.0-12.0-2.28","congruent","2"
"2663","jsPsych/img/14_big.jpg","j","test","down","0","image-keyboard-response","129","339931","0.0-12.0-2.29","congruent","2"
"1824.7999999970198","jsPsych/img/28_big.jpg","f","test","up","0","image-keyboard-response","132","344876","0.0-12.0-2.30","congruent","2"
"2202","jsPsych/img/04_big.jpg","f","test","down","0","image-keyboard-response","135","350944","0.0-12.0-2.31","congruent","2"
"2503","jsPsych/img/24_big.jpg","f","test","up","0","image-keyboard-response","42","239161","0.0-12.0-2.0","congruent","2"
"4396","jsPsych/img/29_big.jpg","j","test","up","0","image-keyboard-response","45","247162","0.0-12.0-2.1","congruent","2"
"6189.000000000058","jsPsych/img/35_big.jpg","f","test","up","0","image-keyboard-response","48","256455","0.0-12.0-2.2","incongruent","2"
"4443","jsPsych/img/06_big.jpg","j","test","down","0","image-keyboard-response","51","263500","0.0-12.0-2.3","congruent","2"
"3313","jsPsych/img/09_big.jpg","j","test","down","0","image-keyboard-response","54","270416","0.0-12.0-2.4","incongruent","2"
"2058.999999999942","jsPsych/img/12_big.jpg","j","test","down","0","image-keyboard-response","57","275829","0.0-12.0-2.5","incongruent","2"
"2309.000000000058","jsPsych/img/27_big.jpg","j","test","up","0","image-keyboard-response","60","280991","0.0-12.0-2.6","congruent","2"
"2455","jsPsych/img/07_big.jpg","f","test","down","0","image-keyboard-response","63","287552","0.0-12.0-2.7","incongruent","2"
"1882","jsPsych/img/01_big.jpg","f","test","down","0","image-keyboard-response","66","292288","0.0-12.0-2.8","incongruent","2"
"1854.0000000000582","jsPsych/img/28_big.jpg","j","test","up","0","image-keyboard-response","69","298247","0.0-12.0-2.9","congruent","2"
"2155","jsPsych/img/14_big.jpg","j","test","down","0","image-keyboard-response","72","303007","0.0-12.0-2.10","incongruent","2"
"2682","jsPsych/img/25_big.jpg","f","test","up","0","image-keyboard-response","75","309293","0.0-12.0-2.11","congruent","2"
"792","jsPsych/img/33_big.jpg","f","test","up","0","image-keyboard-response","78","313690","0.0-12.0-2.12","congruent","2"
"1103.9999999999418","jsPsych/img/10_big.jpg","j","test","down","0","image-keyboard-response","81","317649","0.0-12.0-2.13","incongruent","2"
"550","jsPsych/img/22_big.jpg","f","test","up","0","image-keyboard-response","84","320803","0.0-12.0-2.14","incongruent","2"
"1213","jsPsych/img/34_big.jpg","j","test","up","0","image-keyboard-response","87","326120","0.0-12.0-2.15","congruent","2"
"305","jsPsych/img/15_big.jpg","f","test","down","0","image-keyboard-response","90","330029","0.0-12.0-2.16","incongruent","2"
"904.9999999999418","jsPsych/img/36_big.jpg","j","test","up","0","image-keyboard-response","93","334039","0.0-12.0-2.17","congruent","2"
"1892","jsPsych/img/03_big.jpg","f","test","down","0","image-keyboard-response","96","339786","0.0-12.0-2.18","incongruent","2"
"1718","jsPsych/img/23_big.jpg","f","test","up","0","image-keyboard-response","99","344108","0.0-12.0-2.19","incongruent","2"
"1221.0000000000582","jsPsych/img/13_big.jpg","j","test","down","0","image-keyboard-response","102","349433","0.0-12.0-2.20","congruent","2"
"1435","jsPsych/img/02_big.jpg","f","test","down","0","image-keyboard-response","105","353973","0.0-12.0-2.21","congruent","2"
"1276","jsPsych/img/21_big.jpg","j","test","up","0","image-keyboard-response","108","358105","0.0-12.0-2.22","congruent","2"
"1272","jsPsych/img/18_big.jpg","f","test","down","0","image-keyboard-response","111","361981","0.0-12.0-2.23","congruent","2"
"1096","jsPsych/img/26_big.jpg","j","test","up","0","image-keyboard-response","114","366930","0.0-12.0-2.24","incongruent","2"
"1343","jsPsych/img/05_big.jpg","f","test","down","0","image-keyboard-response","117","371628","0.0-12.0-2.25","congruent","2"
"985","jsPsych/img/11_big.jpg","j","test","down","0","image-keyboard-response","120","376467","0.0-12.0-2.26","congruent","2"
"1006.9999999999418","jsPsych/img/16_big.jpg","f","test","down","0","image-keyboard-response","123","380828","0.0-12.0-2.27","incongruent","2"
"708","jsPsych/img/30_big.jpg","j","test","up","0","image-keyboard-response","126","385391","0.0-12.0-2.28","incongruent","2"
"613","jsPsych/img/04_big.jpg","f","test","down","0","image-keyboard-response","129","389609","0.0-12.0-2.29","incongruent","2"
"1889","jsPsych/img/19_big.jpg","f","test","up","0","image-keyboard-response","132","395102","0.0-12.0-2.30","incongruent","2"
"1774","jsPsych/img/32_big.jpg","j","test","up","0","image-keyboard-response","135","399732","0.0-12.0-2.31","congruent","2"
"1695","jsPsych/img/24_big.jpg","j","test","up","0","image-keyboard-response","42","343090","0.0-12.0-2.0","congruent","2"
"2529","jsPsych/img/13_big.jpg","f","test","down","0","image-keyboard-response","45","348479","0.0-12.0-2.1","incongruent","2"
"2353","jsPsych/img/01_big.jpg","f","test","down","0","image-keyboard-response","48","354945","0.0-12.0-2.2","incongruent","2"
"2476","jsPsych/img/15_big.jpg","j","test","down","0","image-keyboard-response","51","360529","0.0-12.0-2.3","congruent","2"
"2441.000000000058","jsPsych/img/26_big.jpg","j","test","up","0","image-keyboard-response","54","366327","0.0-12.0-2.4","congruent","2"
"4486.999999999942","jsPsych/img/32_big.jpg","f","test","up","0","image-keyboard-response","57","374422","0.0-12.0-2.5","congruent","2"
"3346","jsPsych/img/28_big.jpg","j","test","up","0","image-keyboard-response","60","381627","0.0-12.0-2.6","congruent","2"
"1964","jsPsych/img/23_big.jpg","f","test","up","0","image-keyboard-response","63","386200","0.0-12.0-2.7","congruent","2"
"2833","jsPsych/img/30_big.jpg","j","test","up","0","image-keyboard-response","66","391890","0.0-12.0-2.8","congruent","2"
"2309","jsPsych/img/04_big.jpg","f","test","down","0","image-keyboard-response","69","397559","0.0-12.0-2.9","incongruent","2"
"1506","jsPsych/img/19_big.jpg","f","test","up","0","image-keyboard-response","72","401925","0.0-12.0-2.10","congruent","2"
"1044.0000000000582","jsPsych/img/16_big.jpg","j","test","down","0","image-keyboard-response","75","405577","0.0-12.0-2.11","congruent","2"
"1926","jsPsych/img/11_big.jpg","f","test","down","0","image-keyboard-response","78","411112","0.0-12.0-2.12","incongruent","2"
"3065","jsPsych/img/06_big.jpg","j","test","down","0","image-keyboard-response","81","418035","0.0-12.0-2.13","incongruent","2"
"1690","jsPsych/img/36_big.jpg","f","test","up","0","image-keyboard-response","84","422333","0.0-12.0-2.14","congruent","2"
"1389.9999999999418","jsPsych/img/14_big.jpg","f","test","down","0","image-keyboard-response","87","426831","0.0-12.0-2.15","incongruent","2"
"1863.9999999999418","jsPsych/img/02_big.jpg","j","test","down","0","image-keyboard-response","90","432555","0.0-12.0-2.16","incongruent","2"
"1285.0000000000582","jsPsych/img/18_big.jpg","f","test","down","0","image-keyboard-response","93","436947","0.0-12.0-2.17","congruent","2"
"1858","jsPsych/img/35_big.jpg","j","test","up","0","image-keyboard-response","96","442914","0.0-12.0-2.18","congruent","2"
"2003","jsPsych/img/25_big.jpg","j","test","up","0","image-keyboard-response","99","448525","0.0-12.0-2.19","congruent","2"
"1064","jsPsych/img/27_big.jpg","f","test","up","0","image-keyboard-response","102","452946","0.0-12.0-2.20","congruent","2"
"1238","jsPsych/img/29_big.jpg","j","test","up","0","image-keyboard-response","105","456792","0.0-12.0-2.21","incongruent","2"
"3501.999999999942","jsPsych/img/21_big.jpg","f","test","up","0","image-keyboard-response","108","462903","0.0-12.0-2.22","incongruent","2"
"2935","jsPsych/img/03_big.jpg","j","test","down","0","image-keyboard-response","111","468449","0.0-12.0-2.23","incongruent","2"
"8011","jsPsych/img/10_big.jpg","f","test","down","0","image-keyboard-response","114","479072","0.0-12.0-2.24","congruent","2"
"645","jsPsych/img/07_big.jpg","j","test","down","0","image-keyboard-response","117","483575","0.0-12.0-2.25","incongruent","2"
"297","jsPsych/img/12_big.jpg","j","test","down","0","image-keyboard-response","120","487230","0.0-12.0-2.26","congruent","2"
"303","jsPsych/img/22_big.jpg","j","test","up","0","image-keyboard-response","123","491390","0.0-12.0-2.27","incongruent","2"
"185","jsPsych/img/33_big.jpg","f","test","up","0","image-keyboard-response","126","494181","0.0-12.0-2.28","incongruent","2"
"247","jsPsych/img/05_big.jpg","j","test","down","0","image-keyboard-response","129","497536","0.0-12.0-2.29","congruent","2"
"453.0000000000582","jsPsych/img/34_big.jpg","f","test","up","0","image-keyboard-response","132","501848","0.0-12.0-2.30","congruent","2"
"605","jsPsych/img/09_big.jpg","f","test","down","0","image-keyboard-response","135","505311","0.0-12.0-2.31","incongruent","2"
"3689.600000143051","jsPsych/img/15_big.jpg","f","test","down","0","image-keyboard-response","42","192754","0.0-12.0-2.0","incongruent","2"
"2162.5","jsPsych/img/23_big.jpg","j","test","up","0","image-keyboard-response","45","198536","0.0-12.0-2.1","congruent","2"
"2664.2999999523163","jsPsych/img/06_big.jpg","f","test","down","0","image-keyboard-response","48","203816","0.0-12.0-2.2","congruent","2"
"5019.700000047684","jsPsych/img/27_big.jpg","f","test","up","0","image-keyboard-response","51","211941","0.0-12.0-2.3","incongruent","2"
"1885.2999999523163","jsPsych/img/35_big.jpg","j","test","up","0","image-keyboard-response","54","216448","0.0-12.0-2.4","incongruent","2"
"1143.9000000953674","jsPsych/img/34_big.jpg","f","test","up","0","image-keyboard-response","57","221220","0.0-12.0-2.5","congruent","2"
"2048.399999856949","jsPsych/img/09_big.jpg","f","test","down","0","image-keyboard-response","60","226388","0.0-12.0-2.6","congruent","2"
"2008.7999999523163","jsPsych/img/04_big.jpg","j","test","down","0","image-keyboard-response","63","231278","0.0-12.0-2.7","incongruent","2"
"2032.2999999523163","jsPsych/img/30_big.jpg","j","test","up","0","image-keyboard-response","66","236431","0.0-12.0-2.8","incongruent","2"
"1026.6000001430511","jsPsych/img/14_big.jpg","f","test","down","0","image-keyboard-response","69","241068","0.0-12.0-2.9","congruent","2"
"1356.6999998092651","jsPsych/img/11_big.jpg","j","test","down","0","image-keyboard-response","72","246295","0.0-12.0-2.10","incongruent","2"
"1231.0999999046326","jsPsych/img/10_big.jpg","j","test","down","0","image-keyboard-response","75","250139","0.0-12.0-2.11","incongruent","2"
"1677.6000001430511","jsPsych/img/07_big.jpg","f","test","down","0","image-keyboard-response","78","255683","0.0-12.0-2.12","incongruent","2"
"1266.4000000953674","jsPsych/img/25_big.jpg","j","test","up","0","image-keyboard-response","81","259823","0.0-12.0-2.13","incongruent","2"
"970.5","jsPsych/img/02_big.jpg","f","test","down","0","image-keyboard-response","84","263414","0.0-12.0-2.14","congruent","2"
"946.7000000476837","jsPsych/img/32_big.jpg","j","test","up","0","image-keyboard-response","87","266980","0.0-12.0-2.15","incongruent","2"
"1574.9000000953674","jsPsych/img/16_big.jpg","j","test","down","0","image-keyboard-response","90","272666","0.0-12.0-2.16","congruent","2"
"3813.399999856949","jsPsych/img/36_big.jpg","f","test","up","0","image-keyboard-response","93","280100","0.0-12.0-2.17","incongruent","2"
"1527.8000001907349","jsPsych/img/22_big.jpg","j","test","up","0","image-keyboard-response","96","285742","0.0-12.0-2.18","congruent","2"
"1801.4000000953674","jsPsych/img/29_big.jpg","f","test","up","0","image-keyboard-response","99","290412","0.0-12.0-2.19","congruent","2"
"1558.4000000953674","jsPsych/img/33_big.jpg","j","test","up","0","image-keyboard-response","102","296084","0.0-12.0-2.20","congruent","2"
"1400.7999999523163","jsPsych/img/12_big.jpg","j","test","down","0","image-keyboard-response","105","300607","0.0-12.0-2.21","incongruent","2"
"1609.5999999046326","jsPsych/img/28_big.jpg","f","test","up","0","image-keyboard-response","108","306082","0.0-12.0-2.22","congruent","2"
"1016.7000000476837","jsPsych/img/24_big.jpg","j","test","up","0","image-keyboard-response","111","310455","0.0-12.0-2.23","incongruent","2"
"1631.1000001430511","jsPsych/img/05_big.jpg","f","test","down","0","image-keyboard-response","114","315961","0.0-12.0-2.24","congruent","2"
"1064","jsPsych/img/18_big.jpg","j","test","down","0","image-keyboard-response","117","319636","0.0-12.0-2.25","congruent","2"
"862.2999999523163","jsPsych/img/01_big.jpg","j","test","down","0","image-keyboard-response","120","324372","0.0-12.0-2.26","incongruent","2"
"1444","jsPsych/img/21_big.jpg","j","test","up","0","image-keyboard-response","123","328445","0.0-12.0-2.27","congruent","2"
"1211.6999998092651","jsPsych/img/19_big.jpg","f","test","up","0","image-keyboard-response","126","332289","0.0-12.0-2.28","congruent","2"
"736.2000000476837","jsPsych/img/03_big.jpg","f","test","down","0","image-keyboard-response","129","335896","0.0-12.0-2.29","incongruent","2"
"921.3999998569489","jsPsych/img/26_big.jpg","j","test","up","0","image-keyboard-response","132","340187","0.0-12.0-2.30","congruent","2"
"1059","jsPsych/img/13_big.jpg","f","test","down","0","image-keyboard-response","135","345112","0.0-12.0-2.31","incongruent","2"
