"rt","stimulus","response","task","condition","random","trial_type","trial_index","time_elapsed","internal_node_id","match","hp_test"
"447.69999998807907","jsPsych/img/29_big.jpg","j","test","up","0","image-keyboard-response","42","240232","0.0-12.0-2.0","congruent","2"
"16774.90000000596","jsPsych/img/10_big.jpg","j","test","down","0","image-keyboard-response","45","260362","0.0-12.0-2.1","incongruent","2"
"4767.5999999940395","jsPsych/img/21_big.jpg","f","test","up","0","image-keyboard-response","48","268739","0.0-12.0-2.2","congruent","2"
"8606.199999988079","jsPsych/img/25_big.jpg","j","test","up","0","image-keyboard-response","51","281453","0.0-12.0-2.3","congruent","2"
"2273","jsPsych/img/22_big.jpg","f","test","up","0","image-keyboard-response","54","286335","0.0-12.0-2.4","congruent","2"
"5265.800000011921","jsPsych/img/33_big.jpg","f","test","up","0","image-keyboard-response","57","295460","0.0-12.0-2.5","congruent","2"
"6101.5999999940395","jsPsych/img/32_big.jpg","f","test","up","0","image-keyboard-response","60","304918","0.0-12.0-2.6","congruent","2"
"4301.5999999940395","jsPsych/img/03_big.jpg","f","test","down","0","image-keyboard-response","63","312080","0.0-12.0-2.7","congruent","2"
"4840.899999976158","jsPsych/img/18_big.jpg","j","test","down","0","image-keyboard-response","66","321030","0.0-12.0-2.8","congruent","2"
"913201.099999994","jsPsych/img/36_big.jpg","j","test","up","0","image-keyboard-response","69","1236845","0.0-12.0-2.9","congruent","2"
"11118.300000011921","jsPsych/img/34_big.jpg","j","test","up","0","image-keyboard-response","72","1250574","0.0-12.0-2.10","congruent","2"
"17022","jsPsych/img/14_big.jpg","f","test","down","0","image-keyboard-response","75","1270954","0.0-12.0-2.11","incongruent","2"
"2729.0999999940395","jsPsych/img/23_big.jpg","f","test","up","0","image-keyboard-response","78","1277542","0.0-12.0-2.12","incongruent","2"
"4682.799999982119","jsPsych/img/15_big.jpg","j","test","down","0","image-keyboard-response","81","1285331","0.0-12.0-2.13","incongruent","2"
"3440.2999999821186","jsPsych/img/13_big.jpg","f","test","down","0","image-keyboard-response","84","1292382","0.0-12.0-2.14","congruent","2"
"4701.9000000059605","jsPsych/img/30_big.jpg","j","test","up","0","image-keyboard-response","87","1300443","0.0-12.0-2.15","incongruent","2"
"3382.5999999940395","jsPsych/img/28_big.jpg","j","test","up","0","image-keyboard-response","90","1306436","0.0-12.0-2.16","incongruent","2"
"6500.5","jsPsych/img/12_big.jpg","j","test","down","0","image-keyboard-response","93","1316543","0.0-12.0-2.17","congruent","2"
"4325","jsPsych/img/11_big.jpg","f","test","down","0","image-keyboard-response","96","1324227","0.0-12.0-2.18","incongruent","2"
"4881.700000017881","jsPsych/img/16_big.jpg","f","test","down","0","image-keyboard-response","99","1332966","0.0-12.0-2.19","congruent","2"
"3616.0999999940395","jsPsych/img/35_big.jpg","f","test","up","0","image-keyboard-response","102","1339942","0.0-12.0-2.20","congruent","2"
"13725.5","jsPsych/img/09_big.jpg","j","test","down","0","image-keyboard-response","105","1356975","0.0-12.0-2.21","incongruent","2"
"3047.2000000178814","jsPsych/img/19_big.jpg","j","test","up","0","image-keyboard-response","108","1362879","0.0-12.0-2.22","incongruent","2"
"4676.0999999940395","jsPsych/img/06_big.jpg","f","test","down","0","image-keyboard-response","111","1370162","0.0-12.0-2.23","incongruent","2"
"4021.5","jsPsych/img/24_big.jpg","f","test","up","0","image-keyboard-response","114","1377794","0.0-12.0-2.24","incongruent","2"
"2539.7999999821186","jsPsych/img/02_big.jpg","j","test","down","0","image-keyboard-response","117","1382943","0.0-12.0-2.25","congruent","2"
"3923.5","jsPsych/img/01_big.jpg","f","test","down","0","image-keyboard-response","120","1389975","0.0-12.0-2.26","congruent","2"
"16642.09999999404","jsPsych/img/27_big.jpg","f","test","up","0","image-keyboard-response","123","1410477","0.0-12.0-2.27","congruent","2"
"2239.5999999940395","jsPsych/img/05_big.jpg","j","test","down","0","image-keyboard-response","126","1416327","0.0-12.0-2.28","incongruent","2"
"3062.5","jsPsych/img/26_big.jpg","f","test","up","0","image-keyboard-response","129","1423495","0.0-12.0-2.29","congruent","2"
"2229.399999976158","jsPsych/img/04_big.jpg","j","test","down","0","image-keyboard-response","132","1429582","0.0-12.0-2.30","congruent","2"
"2634.5","jsPsych/img/07_big.jpg","j","test","down","0","image-keyboard-response","135","1435075","0.0-12.0-2.31","congruent","2"
"2893.5","jsPsych/img/36_big.jpg","f","test","up","0","image-keyboard-response","42","176276","0.0-12.0-2.0","incongruent","2"
"3475.5999999940395","jsPsych/img/07_big.jpg","f","test","down","0","image-keyboard-response","45","182630","0.0-12.0-2.1","congruent","2"
"2366.2999999821186","jsPsych/img/01_big.jpg","f","test","down","0","image-keyboard-response","48","187626","0.0-12.0-2.2","congruent","2"
"1397.800000011921","jsPsych/img/03_big.jpg","j","test","down","0","image-keyboard-response","51","192650","0.0-12.0-2.3","incongruent","2"
"2863.2000000178814","jsPsych/img/30_big.jpg","j","test","up","0","image-keyboard-response","54","198883","0.0-12.0-2.4","incongruent","2"
"2083.5","jsPsych/img/28_big.jpg","f","test","up","0","image-keyboard-response","57","204833","0.0-12.0-2.5","incongruent","2"
"6006.5999999940395","jsPsych/img/18_big.jpg","f","test","down","0","image-keyboard-response","60","214205","0.0-12.0-2.6","incongruent","2"
"2398.300000011921","jsPsych/img/32_big.jpg","f","test","up","0","image-keyboard-response","63","219478","0.0-12.0-2.7","congruent","2"
"2411.5999999940395","jsPsych/img/04_big.jpg","j","test","down","0","image-keyboard-response","66","225013","0.0-12.0-2.8","incongruent","2"
"1920.2000000178814","jsPsych/img/02_big.jpg","j","test","down","0","image-keyboard-response","69","230569","0.0-12.0-2.9","congruent","2"
"6209.0999999940395","jsPsych/img/10_big.jpg","j","test","down","0","image-keyboard-response","72","240149","0.0-12.0-2.10","congruent","2"
"3017.0999999940395","jsPsych/img/21_big.jpg","j","test","up","0","image-keyboard-response","75","247276","0.0-12.0-2.11","incongruent","2"
"5742.800000011921","jsPsych/img/16_big.jpg","j","test","down","0","image-keyboard-response","78","256647","0.0-12.0-2.12","incongruent","2"
"2101","jsPsych/img/29_big.jpg","f","test","up","0","image-keyboard-response","81","261357","0.0-12.0-2.13","incongruent","2"
"3478.4000000059605","jsPsych/img/24_big.jpg","j","test","up","0","image-keyboard-response","84","267454","0.0-12.0-2.14","congruent","2"
"2753.5","jsPsych/img/14_big.jpg","f","test","down","0","image-keyboard-response","87","273827","0.0-12.0-2.15","congruent","2"
"4999.4000000059605","jsPsych/img/13_big.jpg","f","test","down","0","image-keyboard-response","90","282939","0.0-12.0-2.16","incongruent","2"
"1341","jsPsych/img/12_big.jpg","j","test","down","0","image-keyboard-response","93","287399","0.0-12.0-2.17","incongruent","2"
"2075.5","jsPsych/img/27_big.jpg","j","test","up","0","image-keyboard-response","96","292601","0.0-12.0-2.18","incongruent","2"
"1410.7999999821186","jsPsych/img/15_big.jpg","f","test","down","0","image-keyboard-response","99","297637","0.0-12.0-2.19","incongruent","2"
"2656.5999999940395","jsPsych/img/34_big.jpg","j","test","up","0","image-keyboard-response","102","303174","0.0-12.0-2.20","incongruent","2"
"1653.7000000178814","jsPsych/img/25_big.jpg","j","test","up","0","image-keyboard-response","105","307702","0.0-12.0-2.21","incongruent","2"
"1670.800000011921","jsPsych/img/06_big.jpg","f","test","down","0","image-keyboard-response","108","312246","0.0-12.0-2.22","congruent","2"
"1885.1000000238419","jsPsych/img/33_big.jpg","j","test","up","0","image-keyboard-response","111","317501","0.0-12.0-2.23","congruent","2"
"2018.5999999940395","jsPsych/img/26_big.jpg","f","test","up","0","image-keyboard-response","114","322631","0.0-12.0-2.24","congruent","2"
"973.0999999940395","jsPsych/img/35_big.jpg","f","test","up","0","image-keyboard-response","117","327486","0.0-12.0-2.25","incongruent","2"
"1615.2000000178814","jsPsych/img/09_big.jpg","j","test","down","0","image-keyboard-response","120","332228","0.0-12.0-2.26","congruent","2"
"1222.5","jsPsych/img/22_big.jpg","f","test","up","0","image-keyboard-response","123","336822","0.0-12.0-2.27","congruent","2"
"2106.2000000178814","jsPsych/img/23_big.jpg","f","test","up","0","image-keyboard-response","126","342796","0.0-12.0-2.28","incongruent","2"
"1290.800000011921","jsPsych/img/11_big.jpg","f","test","down","0","image-keyboard-response","129","347208","0.0-12.0-2.29","incongruent","2"
"1439.699999988079","jsPsych/img/05_big.jpg","j","test","down","0","image-keyboard-response","132","352766","0.0-12.0-2.30","incongruent","2"
"2358.2999999821186","jsPsych/img/19_big.jpg","f","test","up","0","image-keyboard-response","135","357992","0.0-12.0-2.31","incongruent","2"
"9745","jsPsych/img/35_big.jpg","f","test","up","0","image-keyboard-response","42","350165","0.0-12.0-2.0","incongruent","2"
"5194.399999976158","jsPsych/img/24_big.jpg","j","test","up","0","image-keyboard-response","45","358972","0.0-12.0-2.1","incongruent","2"
"4429.199999988079","jsPsych/img/19_big.jpg","j","test","up","0","image-keyboard-response","48","367012","0.0-12.0-2.2","incongruent","2"
"5828.600000023842","jsPsych/img/33_big.jpg","f","test","up","0","image-keyboard-response","51","375702","0.0-12.0-2.3","incongruent","2"
"23238.69999998808","jsPsych/img/32_big.jpg","j","test","up","0","image-keyboard-response","54","402801","0.0-12.0-2.4","incongruent","2"
"11913.199999988079","jsPsych/img/01_big.jpg","f","test","down","0","image-keyboard-response","57","418326","0.0-12.0-2.5","incongruent","2"
"5176.600000023842","jsPsych/img/30_big.jpg","f","test","up","0","image-keyboard-response","60","426864","0.0-12.0-2.6","incongruent","2"
"6097.5","jsPsych/img/22_big.jpg","j","test","up","0","image-keyboard-response","63","435575","0.0-12.0-2.7","incongruent","2"
"7178.099999964237","jsPsych/img/23_big.jpg","f","test","up","0","image-keyboard-response","66","446378","0.0-12.0-2.8","incongruent","2"
"5020.699999988079","jsPsych/img/21_big.jpg","f","test","up","0","image-keyboard-response","69","454014","0.0-12.0-2.9","incongruent","2"
"4335.899999976158","jsPsych/img/36_big.jpg","j","test","up","0","image-keyboard-response","72","461212","0.0-12.0-2.10","incongruent","2"
"7139","jsPsych/img/16_big.jpg","f","test","down","0","image-keyboard-response","75","471212","0.0-12.0-2.11","congruent","2"
"3907.300000011921","jsPsych/img/10_big.jpg","f","test","down","0","image-keyboard-response","78","478483","0.0-12.0-2.12","congruent","2"
"2511.600000023842","jsPsych/img/15_big.jpg","j","test","down","0","image-keyboard-response","81","484606","0.0-12.0-2.13","congruent","2"
"3458.800000011921","jsPsych/img/25_big.jpg","f","test","up","0","image-keyboard-response","84","491177","0.0-12.0-2.14","incongruent","2"
"6025.399999976158","jsPsych/img/18_big.jpg","j","test","down","0","image-keyboard-response","87","501317","0.0-12.0-2.15","congruent","2"
"2557.600000023842","jsPsych/img/29_big.jpg","f","test","up","0","image-keyboard-response","90","506733","0.0-12.0-2.16","incongruent","2"
"11764.700000047684","jsPsych/img/13_big.jpg","j","test","down","0","image-keyboard-response","93","521859","0.0-12.0-2.17","congruent","2"
"2440.800000011921","jsPsych/img/02_big.jpg","f","test","down","0","image-keyboard-response","96","527159","0.0-12.0-2.18","congruent","2"
"5136.800000011921","jsPsych/img/03_big.jpg","f","test","down","0","image-keyboard-response","99","536155","0.0-12.0-2.19","congruent","2"
"2977.399999976158","jsPsych/img/12_big.jpg","f","test","down","0","image-keyboard-response","102","543238","0.0-12.0-2.20","congruent","2"
"1826.199999988079","jsPsych/img/28_big.jpg","f","test","up","0","image-keyboard-response","105","548672","0.0-12.0-2.21","incongruent","2"
"2504.099999964237","jsPsych/img/26_big.jpg","f","test","up","0","image-keyboard-response","108","554783","0.0-12.0-2.22","incongruent","2"
"2268.900000035763","jsPsych/img/14_big.jpg","f","test","down","0","image-keyboard-response","111","560409","0.0-12.0-2.23","congruent","2"
"4639.199999988079","jsPsych/img/09_big.jpg","j","test","down","0","image-keyboard-response","114","568161","0.0-12.0-2.24","congruent","2"
"2555.100000023842","jsPsych/img/05_big.jpg","j","test","down","0","image-keyboard-response","117","574574","0.0-12.0-2.25","congruent","2"
"6267.699999988079","jsPsych/img/34_big.jpg","f","test","up","0","image-keyboard-response","120","583699","0.0-12.0-2.26","incongruent","2"
"3361.800000011921","jsPsych/img/04_big.jpg","j","test","down","0","image-keyboard-response","123","590666","0.0-12.0-2.27","incongruent","2"
"9918.299999952316","jsPsych/img/07_big.jpg","f","test","down","0","image-keyboard-response","126","604699","0.0-12.0-2.28","congruent","2"
"1991.699999988079","jsPsych/img/11_big.jpg","j","test","down","0","image-keyboard-response","129","610303","0.0-12.0-2.29","congruent","2"
"2363.699999988079","jsPsych/img/27_big.jpg","j","test","up","0","image-keyboard-response","132","616279","0.0-12.0-2.30","incongruent","2"
"1867.800000011921","jsPsych/img/06_big.jpg","f","test","down","0","image-keyboard-response","135","622260","0.0-12.0-2.31","congruent","2"
"1935.5","jsPsych/img/32_big.jpg","f","test","up","0","image-keyboard-response","42","152490","0.0-12.0-2.0","incongruent","2"
"3495.899999976158","jsPsych/img/22_big.jpg","f","test","up","0","image-keyboard-response","45","159593","0.0-12.0-2.1","congruent","2"
"1335.7999999523163","jsPsych/img/24_big.jpg","f","test","up","0","image-keyboard-response","48","164791","0.0-12.0-2.2","congruent","2"
"2268.1999999284744","jsPsych/img/14_big.jpg","f","test","down","0","image-keyboard-response","51","169917","0.0-12.0-2.3","incongruent","2"
"1683.6000000238419","jsPsych/img/09_big.jpg","j","test","down","0","image-keyboard-response","54","174967","0.0-12.0-2.4","incongruent","2"
"1271.3999999761581","jsPsych/img/01_big.jpg","j","test","down","0","image-keyboard-response","57","179604","0.0-12.0-2.5","incongruent","2"
"1780.6000000238419","jsPsych/img/02_big.jpg","f","test","down","0","image-keyboard-response","60","184993","0.0-12.0-2.6","congruent","2"
"5121.700000047684","jsPsych/img/25_big.jpg","f","test","up","0","image-keyboard-response","63","193979","0.0-12.0-2.7","congruent","2"
"1791.6000000238419","jsPsych/img/04_big.jpg","j","test","down","0","image-keyboard-response","66","199631","0.0-12.0-2.8","incongruent","2"
"3904.100000023842","jsPsych/img/23_big.jpg","j","test","up","0","image-keyboard-response","69","207654","0.0-12.0-2.9","congruent","2"
"3089.7999999523163","jsPsych/img/35_big.jpg","j","test","up","0","image-keyboard-response","72","213603","0.0-12.0-2.10","incongruent","2"
"2693.600000023842","jsPsych/img/10_big.jpg","j","test","down","0","image-keyboard-response","75","220405","0.0-12.0-2.11","congruent","2"
"3088.100000023842","jsPsych/img/16_big.jpg","f","test","down","0","image-keyboard-response","78","226856","0.0-12.0-2.12","congruent","2"
"2174","jsPsych/img/29_big.jpg","f","test","up","0","image-keyboard-response","81","231893","0.0-12.0-2.13","congruent","2"
"1914.2999999523163","jsPsych/img/27_big.jpg","f","test","up","0","image-keyboard-response","84","237669","0.0-12.0-2.14","congruent","2"
"2087.5","jsPsych/img/33_big.jpg","j","test","up","0","image-keyboard-response","87","243118","0.0-12.0-2.15","incongruent","2"
"2204.2999999523163","jsPsych/img/21_big.jpg","j","test","up","0","image-keyboard-response","90","249183","0.0-12.0-2.16","incongruent","2"
"9221.299999952316","jsPsych/img/36_big.jpg","f","test","up","0","image-keyboard-response","93","262268","0.0-12.0-2.17","incongruent","2"
"2823.100000023842","jsPsych/img/28_big.jpg","f","test","up","0","image-keyboard-response","96","268955","0.0-12.0-2.18","incongruent","2"
"2322.899999976158","jsPsych/img/11_big.jpg","j","test","down","0","image-keyboard-response","99","274643","0.0-12.0-2.19","incongruent","2"
"1979.1999999284744","jsPsych/img/12_big.jpg","f","test","down","0","image-keyboard-response","102","279231","0.0-12.0-2.20","congruent","2"
"1616.6000000238419","jsPsych/img/30_big.jpg","j","test","up","0","image-keyboard-response","105","283706","0.0-12.0-2.21","congruent","2"
"2569","jsPsych/img/19_big.jpg","f","test","up","0","image-keyboard-response","108","289894","0.0-12.0-2.22","congruent","2"
"2389.2000000476837","jsPsych/img/34_big.jpg","f","test","up","0","image-keyboard-response","111","294893","0.0-12.0-2.23","congruent","2"
"1910","jsPsych/img/26_big.jpg","j","test","up","0","image-keyboard-response","114","299418","0.0-12.0-2.24","incongruent","2"
"1227.7000000476837","jsPsych/img/06_big.jpg","j","test","down","0","image-keyboard-response","117","304758","0.0-12.0-2.25","incongruent","2"
"4295.5","jsPsych/img/13_big.jpg","f","test","down","0","image-keyboard-response","120","312918","0.0-12.0-2.26","incongruent","2"
"1228","jsPsych/img/07_big.jpg","j","test","down","0","image-keyboard-response","123","317258","0.0-12.0-2.27","incongruent","2"
"1496.8999999761581","jsPsych/img/15_big.jpg","f","test","down","0","image-keyboard-response","126","321868","0.0-12.0-2.28","congruent","2"
"1352.2999999523163","jsPsych/img/03_big.jpg","f","test","down","0","image-keyboard-response","129","325832","0.0-12.0-2.29","incongruent","2"
"1422.7000000476837","jsPsych/img/05_big.jpg","f","test","down","0","image-keyboard-response","132","330370","0.0-12.0-2.30","incongruent","2"
"1673.9000000953674","jsPsych/img/18_big.jpg","j","test","down","0","image-keyboard-response","135","336158","0.0-12.0-2.31","congruent","2"
"3701.5999999940395","jsPsych/img/23_big.jpg","j","test","up","0","image-keyboard-response","42","130789","0.0-12.0-2.0","incongruent","2"
"2179.800000011921","jsPsych/img/09_big.jpg","j","test","down","0","image-keyboard-response","45","135850","0.0-12.0-2.1","congruent","2"
"1560.300000011921","jsPsych/img/12_big.jpg","f","test","down","0","image-keyboard-response","48","140275","0.0-12.0-2.2","congruent","2"
"2977.800000011921","jsPsych/img/14_big.jpg","f","test","down","0","image-keyboard-response","51","146371","0.0-12.0-2.3","incongruent","2"
"1498.5","jsPsych/img/18_big.jpg","j","test","down","0","image-keyboard-response","54","151990","0.0-12.0-2.4","congruent","2"
"1929.4000000059605","jsPsych/img/25_big.jpg","j","test","up","0","image-keyboard-response","57","157038","0.0-12.0-2.5","incongruent","2"
"1249.5999999940395","jsPsych/img/22_big.jpg","j","test","up","0","image-keyboard-response","60","161404","0.0-12.0-2.6","incongruent","2"
"1185.5","jsPsych/img/30_big.jpg","j","test","up","0","image-keyboard-response","63","166206","0.0-12.0-2.7","incongruent","2"
"1169.0999999940395","jsPsych/img/26_big.jpg","f","test","up","0","image-keyboard-response","66","170998","0.0-12.0-2.8","incongruent","2"
"1436.5","jsPsych/img/07_big.jpg","f","test","down","0","image-keyboard-response","69","175816","0.0-12.0-2.9","incongruent","2"
"1211.9000000059605","jsPsych/img/03_big.jpg","j","test","down","0","image-keyboard-response","72","180164","0.0-12.0-2.10","incongruent","2"
"1220.7000000178814","jsPsych/img/21_big.jpg","f","test","up","0","image-keyboard-response","75","184251","0.0-12.0-2.11","congruent","2"
"954.3999999761581","jsPsych/img/36_big.jpg","j","test","up","0","image-keyboard-response","78","188319","0.0-12.0-2.12","incongruent","2"
"1442.300000011921","jsPsych/img/15_big.jpg","j","test","down","0","image-keyboard-response","81","193629","0.0-12.0-2.13","incongruent","2"
"1020.3000000119209","jsPsych/img/04_big.jpg","f","test","down","0","image-keyboard-response","84","198271","0.0-12.0-2.14","incongruent","2"
"1145.9000000059605","jsPsych/img/01_big.jpg","j","test","down","0","image-keyboard-response","87","202789","0.0-12.0-2.15","incongruent","2"
"899.3000000119209","jsPsych/img/16_big.jpg","f","test","down","0","image-keyboard-response","90","207311","0.0-12.0-2.16","incongruent","2"
"640.3000000119209","jsPsych/img/05_big.jpg","j","test","down","0","image-keyboard-response","93","211577","0.0-12.0-2.17","congruent","2"
"1090.0999999940395","jsPsych/img/33_big.jpg","f","test","up","0","image-keyboard-response","96","215534","0.0-12.0-2.18","incongruent","2"
"1033.5999999940395","jsPsych/img/06_big.jpg","j","test","down","0","image-keyboard-response","99","219191","0.0-12.0-2.19","congruent","2"
"744.7999999821186","jsPsych/img/35_big.jpg","f","test","up","0","image-keyboard-response","102","222801","0.0-12.0-2.20","incongruent","2"
"1206.7000000178814","jsPsych/img/24_big.jpg","f","test","up","0","image-keyboard-response","105","226868","0.0-12.0-2.21","congruent","2"
"1117.9000000059605","jsPsych/img/32_big.jpg","f","test","up","0","image-keyboard-response","108","230612","0.0-12.0-2.22","congruent","2"
"881.9000000059605","jsPsych/img/10_big.jpg","f","test","down","0","image-keyboard-response","111","235617","0.0-12.0-2.23","congruent","2"
"892.7000000178814","jsPsych/img/02_big.jpg","j","test","down","0","image-keyboard-response","114","240379","0.0-12.0-2.24","congruent","2"
"418.30000001192093","jsPsych/img/27_big.jpg","f","test","up","0","image-keyboard-response","117","244920","0.0-12.0-2.25","congruent","2"
"610.6999999880791","jsPsych/img/19_big.jpg","j","test","up","0","image-keyboard-response","120","248903","0.0-12.0-2.26","incongruent","2"
"322.09999999403954","jsPsych/img/28_big.jpg","f","test","up","0","image-keyboard-response","123","253096","0.0-12.0-2.27","congruent","2"
"697.9000000059605","jsPsych/img/13_big.jpg","j","test","down","0","image-keyboard-response","126","257671","0.0-12.0-2.28","incongruent","2"
"544.2999999821186","jsPsych/img/11_big.jpg","f","test","down","0","image-keyboard-response","129","261601","0.0-12.0-2.29","congruent","2"
"982.8000000119209","jsPsych/img/34_big.jpg","j","test","up","0","image-keyboard-response","132","266695","0.0-12.0-2.30","incongruent","2"
"1271.0999999940395","jsPsych/img/29_big.jpg","f","test","up","0","image-keyboard-response","135","271828","0.0-12.0-2.31","incongruent","2"
"510.8999999985099","jsPsych/img/23_big.jpg","f","test","up","0","image-keyboard-response","42","137173","0.0-12.0-2.0","incongruent","2"
"458.30000000447035","jsPsych/img/15_big.jpg","j","test","down","0","image-keyboard-response","45","140510","0.0-12.0-2.1","incongruent","2"
"3460.39999999851","jsPsych/img/10_big.jpg","j","test","down","0","image-keyboard-response","48","147099","0.0-12.0-2.2","congruent","2"
"146.60000000149012","jsPsych/img/03_big.jpg","j","test","down","0","image-keyboard-response","51","151376","0.0-12.0-2.3","congruent","2"
"326.70000000298023","jsPsych/img/18_big.jpg","j","test","down","0","image-keyboard-response","54","154822","0.0-12.0-2.4","congruent","2"
"779.8000000044703","jsPsych/img/26_big.jpg","j","test","up","0","image-keyboard-response","57","158962","0.0-12.0-2.5","congruent","2"
"121.70000000298023","jsPsych/img/14_big.jpg","j","test","down","0","image-keyboard-response","60","163215","0.0-12.0-2.6","congruent","2"
"235.20000000298023","jsPsych/img/16_big.jpg","j","test","down","0","image-keyboard-response","63","166318","0.0-12.0-2.7","incongruent","2"
"85.5","jsPsych/img/30_big.jpg","f","test","up","0","image-keyboard-response","66","169276","0.0-12.0-2.8","incongruent","2"
"826.5","jsPsych/img/28_big.jpg","j","test","up","0","image-keyboard-response","69","173490","0.0-12.0-2.9","congruent","2"
"565.5","jsPsych/img/12_big.jpg","f","test","down","0","image-keyboard-response","72","177428","0.0-12.0-2.10","congruent","2"
"710.9000000059605","jsPsych/img/33_big.jpg","j","test","up","0","image-keyboard-response","75","180763","0.0-12.0-2.11","congruent","2"
"632.2000000029802","jsPsych/img/13_big.jpg","j","test","down","0","image-keyboard-response","78","184271","0.0-12.0-2.12","congruent","2"
"299.3999999985099","jsPsych/img/11_big.jpg","f","test","down","0","image-keyboard-response","81","187952","0.0-12.0-2.13","congruent","2"
"329.5","jsPsych/img/06_big.jpg","f","test","down","0","image-keyboard-response","84","191402","0.0-12.0-2.14","congruent","2"
"1170.5","jsPsych/img/07_big.jpg","f","test","down","0","image-keyboard-response","87","196454","0.0-12.0-2.15","congruent","2"
"768.1000000014901","jsPsych/img/05_big.jpg","j","test","down","0","image-keyboard-response","90","200592","0.0-12.0-2.16","congruent","2"
"194.89999999850988","jsPsych/img/02_big.jpg","f","test","down","0","image-keyboard-response","93","204164","0.0-12.0-2.17","congruent","2"
"712.6000000014901","jsPsych/img/19_big.jpg","j","test","up","0","image-keyboard-response","96","208998","0.0-12.0-2.18","incongruent","2"
"303","jsPsych/img/01_big.jpg","f","test","down","0","image-keyboard-response","99","212166","0.0-12.0-2.19","congruent","2"
"277.70000000298023","jsPsych/img/27_big.jpg","j","test","up","0","image-keyboard-response","102","215321","0.0-12.0-2.20","incongruent","2"
"102.39999999850988","jsPsych/img/35_big.jpg","f","test","up","0","image-keyboard-response","105","218795","0.0-12.0-2.21","congruent","2"
"470.30000000447035","jsPsych/img/34_big.jpg","f","test","up","0","image-keyboard-response","108","223384","0.0-12.0-2.22","congruent","2"
"219.29999999701977","jsPsych/img/22_big.jpg","j","test","up","0","image-keyboard-response","111","227224","0.0-12.0-2.23","congruent","2"
"945.5","jsPsych/img/09_big.jpg","f","test","down","0","image-keyboard-response","114","232040","0.0-12.0-2.24","congruent","2"
"5.799999997019768","jsPsych/img/04_big.jpg","j","test","down","0","image-keyboard-response","117","235430","0.0-12.0-2.25","congruent","2"
"664","jsPsych/img/29_big.jpg","f","test","up","0","image-keyboard-response","120","238977","0.0-12.0-2.26","congruent","2"
"102.30000000447035","jsPsych/img/24_big.jpg","j","test","up","0","image-keyboard-response","123","241945","0.0-12.0-2.27","congruent","2"
"20.399999998509884","jsPsych/img/21_big.jpg","f","test","up","0","image-keyboard-response","126","245831","0.0-12.0-2.28","incongruent","2"
"566","jsPsych/img/36_big.jpg","f","test","up","0","image-keyboard-response","129","249518","0.0-12.0-2.29","incongruent","2"
"304.79999999701977","jsPsych/img/32_big.jpg","j","test","up","0","image-keyboard-response","132","253191","0.0-12.0-2.30","congruent","2"
"507.69999999552965","jsPsych/img/25_big.jpg","f","test","up","0","image-keyboard-response","135","256572","0.0-12.0-2.31","incongruent","2"
"2199.39999999851","jsPsych/img/09_big.jpg","j","test","down","0","image-keyboard-response","42","203851","0.0-12.0-2.0","incongruent","2"
"2141.5999999940395","jsPsych/img/02_big.jpg","f","test","down","0","image-keyboard-response","45","209626","0.0-12.0-2.1","congruent","2"
"2777.89999999851","jsPsych/img/04_big.jpg","j","test","down","0","image-keyboard-response","48","216275","0.0-12.0-2.2","incongruent","2"
"44725.59999999404","jsPsych/img/29_big.jpg","j","test","up","0","image-keyboard-response","51","264622","0.0-12.0-2.3","congruent","2"
"8573.79999999702","jsPsych/img/23_big.jpg","j","test","up","0","image-keyboard-response","54","276075","0.0-12.0-2.4","incongruent","2"
"2346.89999999851","jsPsych/img/22_big.jpg","f","test","up","0","image-keyboard-response","57","282298","0.0-12.0-2.5","incongruent","2"
"59.900000005960464","jsPsych/img/19_big.jpg","j","test","up","0","image-keyboard-response","60","286490","0.0-12.0-2.6","incongruent","2"
"1193.5","jsPsych/img/30_big.jpg","j","test","up","0","image-keyboard-response","63","291313","0.0-12.0-2.7","incongruent","2"
"1835.2000000029802","jsPsych/img/05_big.jpg","j","test","down","0","image-keyboard-response","66","295766","0.0-12.0-2.8","congruent","2"
"392.19999999552965","jsPsych/img/36_big.jpg","j","test","up","0","image-keyboard-response","69","300036","0.0-12.0-2.9","incongruent","2"
"358","jsPsych/img/01_big.jpg","j","test","down","0","image-keyboard-response","72","303768","0.0-12.0-2.10","incongruent","2"
"9118.20000000298","jsPsych/img/12_big.jpg","j","test","down","0","image-keyboard-response","75","316268","0.0-12.0-2.11","congruent","2"
"99.70000000298023","jsPsych/img/13_big.jpg","j","test","down","0","image-keyboard-response","78","319989","0.0-12.0-2.12","congruent","2"
"1858.1999999955297","jsPsych/img/24_big.jpg","f","test","up","0","image-keyboard-response","81","324718","0.0-12.0-2.13","congruent","2"
"30.200000002980232","jsPsych/img/32_big.jpg","f","test","up","0","image-keyboard-response","84","328869","0.0-12.0-2.14","incongruent","2"
"56.79999999701977","jsPsych/img/06_big.jpg","j","test","down","0","image-keyboard-response","87","332297","0.0-12.0-2.15","incongruent","2"
"143.60000000149012","jsPsych/img/35_big.jpg","f","test","up","0","image-keyboard-response","90","336315","0.0-12.0-2.16","congruent","2"
"209.10000000149012","jsPsych/img/33_big.jpg","f","test","up","0","image-keyboard-response","93","339140","0.0-12.0-2.17","incongruent","2"
"66.5","jsPsych/img/15_big.jpg","j","test","down","0","image-keyboard-response","96","342087","0.0-12.0-2.18","incongruent","2"
"69.09999999403954","jsPsych/img/27_big.jpg","f","test","up","0","image-keyboard-response","99","344780","0.0-12.0-2.19","incongruent","2"
"343.90000000596046","jsPsych/img/21_big.jpg","f","test","up","0","image-keyboard-response","102","348744","0.0-12.0-2.20","incongruent","2"
"289.69999999552965","jsPsych/img/16_big.jpg","j","test","down","0","image-keyboard-response","105","352156","0.0-12.0-2.21","incongruent","2"
"309.20000000298023","jsPsych/img/25_big.jpg","f","test","up","0","image-keyboard-response","108","355841","0.0-12.0-2.22","incongruent","2"
"573.7000000029802","jsPsych/img/10_big.jpg","j","test","down","0","image-keyboard-response","111","359534","0.0-12.0-2.23","incongruent","2"
"216.30000000447035","jsPsych/img/34_big.jpg","f","test","up","0","image-keyboard-response","114","363116","0.0-12.0-2.24","congruent","2"
"613.7000000029802","jsPsych/img/07_big.jpg","j","test","down","0","image-keyboard-response","117","367104","0.0-12.0-2.25","incongruent","2"
"190.60000000149012","jsPsych/img/26_big.jpg","f","test","up","0","image-keyboard-response","120","370410","0.0-12.0-2.26","incongruent","2"
"102.80000000447035","jsPsych/img/28_big.jpg","f","test","up","0","image-keyboard-response","123","373164","0.0-12.0-2.27","congruent","2"
"448.79999999701977","jsPsych/img/03_big.jpg","j","test","down","0","image-keyboard-response","126","377478","0.0-12.0-2.28","congruent","2"
"465.8999999985099","jsPsych/img/11_big.jpg","j","test","down","0","image-keyboard-response","129","381315","0.0-12.0-2.29","congruent","2"
"271.5","jsPsych/img/18_big.jpg","j","test","down","0","image-keyboard-response","132","385202","0.0-12.0-2.30","congruent","2"
"209.60000000149012","jsPsych/img/14_big.jpg","j","test","down","0","image-keyboard-response","135","388536","0.0-12.0-2.31","incongruent","2"
"4451.800000000745","jsPsych/img/32_big.jpg","j","test","up","0","image-keyboard-response","42","129839","0.0-12.0-2.0","congruent","2"
"4184.60000000149","jsPsych/img/25_big.jpg","f","test","up","0","image-keyboard-response","45","138143","0.0-12.0-2.1","congruent","2"
"2990.300000000745","jsPsych/img/36_big.jpg","j","test","up","0","image-keyboard-response","48","143758","0.0-12.0-2.2","congruent","2"
"2554.7000000029802","jsPsych/img/19_big.jpg","f","test","up","0","image-keyboard-response","51","149932","0.0-12.0-2.3","congruent","2"
"6326.599999997765","jsPsych/img/12_big.jpg","j","test","down","0","image-keyboard-response","54","159121","0.0-12.0-2.4","incongruent","2"
"6591.800000000745","jsPsych/img/27_big.jpg","f","test","up","0","image-keyboard-response","57","168837","0.0-12.0-2.5","congruent","2"
"6970.29999999702","jsPsych/img/13_big.jpg","j","test","down","0","image-keyboard-response","60","179929","0.0-12.0-2.6","incongruent","2"
"6577.900000002235","jsPsych/img/02_big.jpg","f","test","down","0","image-keyboard-response","63","189389","0.0-12.0-2.7","congruent","2"
"1947.1000000014901","jsPsych/img/23_big.jpg","j","test","up","0","image-keyboard-response","66","194202","0.0-12.0-2.8","congruent","2"
"4779.39999999851","jsPsych/img/03_big.jpg","j","test","down","0","image-keyboard-response","69","202603","0.0-12.0-2.9","incongruent","2"
"4741","jsPsych/img/29_big.jpg","j","test","up","0","image-keyboard-response","72","211461","0.0-12.0-2.10","congruent","2"
"3973.800000000745","jsPsych/img/07_big.jpg","f","test","down","0","image-keyboard-response","75","218304","0.0-12.0-2.11","incongruent","2"
"1741.5","jsPsych/img/15_big.jpg","j","test","down","0","image-keyboard-response","78","223665","0.0-12.0-2.12","congruent","2"
"1885.5","jsPsych/img/06_big.jpg","f","test","down","0","image-keyboard-response","81","229425","0.0-12.0-2.13","incongruent","2"
"1410.199999999255","jsPsych/img/24_big.jpg","j","test","up","0","image-keyboard-response","84","233454","0.0-12.0-2.14","congruent","2"
"1899.800000000745","jsPsych/img/35_big.jpg","f","test","up","0","image-keyboard-response","87","238471","0.0-12.0-2.15","congruent","2"
"1385.199999999255","jsPsych/img/22_big.jpg","j","test","up","0","image-keyboard-response","90","242973","0.0-12.0-2.16","congruent","2"
"1307.5","jsPsych/img/01_big.jpg","f","test","down","0","image-keyboard-response","93","247403","0.0-12.0-2.17","incongruent","2"
"3062.10000000149","jsPsych/img/18_big.jpg","f","test","down","0","image-keyboard-response","96","253831","0.0-12.0-2.18","incongruent","2"
"5293.699999999255","jsPsych/img/26_big.jpg","j","test","up","0","image-keyboard-response","99","263234","0.0-12.0-2.19","incongruent","2"
"4952.79999999702","jsPsych/img/05_big.jpg","j","test","down","0","image-keyboard-response","102","271308","0.0-12.0-2.20","congruent","2"
"10331.60000000149","jsPsych/img/30_big.jpg","j","test","up","0","image-keyboard-response","105","285499","0.0-12.0-2.21","congruent","2"
"1030","jsPsych/img/14_big.jpg","f","test","down","0","image-keyboard-response","108","289885","0.0-12.0-2.22","incongruent","2"
"3319.10000000149","jsPsych/img/34_big.jpg","j","test","up","0","image-keyboard-response","111","295829","0.0-12.0-2.23","incongruent","2"
"1273.4000000022352","jsPsych/img/21_big.jpg","f","test","up","0","image-keyboard-response","114","299971","0.0-12.0-2.24","incongruent","2"
"1540.199999999255","jsPsych/img/33_big.jpg","f","test","up","0","image-keyboard-response","117","305371","0.0-12.0-2.25","congruent","2"
"2124.2999999970198","jsPsych/img/10_big.jpg","j","test","down","0","image-keyboard-response","120","310618","0.0-12.0-2.26","incongruent","2"
"2846.699999999255","jsPsych/img/16_big.jpg","j","test","down","0","image-keyboard-response","123","317335","0.0-12.0-2.27","congruent","2"
"4069.5","jsPsych/img/04_big.jpg","j","test","down","0","image-keyboard-response","126","325522","0.0-12.0-2.28","incongruent","2"
"1031.800000000745","jsPsych/img/28_big.jpg","j","test","up","0","image-keyboard-response","129","329181","0.0-12.0-2.29","congruent","2"
"2711.5","jsPsych/img/11_big.jpg","f","test","down","0","image-keyboard-response","132","336011","0.0-12.0-2.30","congruent","2"
"1165.199999999255","jsPsych/img/09_big.jpg","j","test","down","0","image-keyboard-response","135","340784","0.0-12.0-2.31","incongruent","2"
"4451.800000000745","jsPsych/img/32_big.jpg","j","test","up","0","image-keyboard-response","42","129839","0.0-12.0-2.0","congruent","2"
"4184.60000000149","jsPsych/img/25_big.jpg","f","test","up","0","image-keyboard-response","45","138143","0.0-12.0-2.1","congruent","2"
"2990.300000000745","jsPsych/img/36_big.jpg","j","test","up","0","image-keyboard-response","48","143758","0.0-12.0-2.2","congruent","2"
"2554.7000000029802","jsPsych/img/19_big.jpg","f","test","up","0","image-keyboard-response","51","149932","0.0-12.0-2.3","congruent","2"
"6326.599999997765","jsPsych/img/12_big.jpg","j","test","down","0","image-keyboard-response","54","159121","0.0-12.0-2.4","incongruent","2"
"6591.800000000745","jsPsych/img/27_big.jpg","f","test","up","0","image-keyboard-response","57","168837","0.0-12.0-2.5","congruent","2"
"6970.29999999702","jsPsych/img/13_big.jpg","j","test","down","0","image-keyboard-response","60","179929","0.0-12.0-2.6","incongruent","2"
"6577.900000002235","jsPsych/img/02_big.jpg","f","test","down","0","image-keyboard-response","63","189389","0.0-12.0-2.7","congruent","2"
"1947.1000000014901","jsPsych/img/23_big.jpg","j","test","up","0","image-keyboard-response","66","194202","0.0-12.0-2.8","congruent","2"
"4779.39999999851","jsPsych/img/03_big.jpg","j","test","down","0","image-keyboard-response","69","202603","0.0-12.0-2.9","incongruent","2"
"4741","jsPsych/img/29_big.jpg","j","test","up","0","image-keyboard-response","72","211461","0.0-12.0-2.10","congruent","2"
"3973.800000000745","jsPsych/img/07_big.jpg","f","test","down","0","image-keyboard-response","75","218304","0.0-12.0-2.11","incongruent","2"
"1741.5","jsPsych/img/15_big.jpg","j","test","down","0","image-keyboard-response","78","223665","0.0-12.0-2.12","congruent","2"
"1885.5","jsPsych/img/06_big.jpg","f","test","down","0","image-keyboard-response","81","229425","0.0-12.0-2.13","incongruent","2"
"1410.199999999255","jsPsych/img/24_big.jpg","j","test","up","0","image-keyboard-response","84","233454","0.0-12.0-2.14","congruent","2"
"1899.800000000745","jsPsych/img/35_big.jpg","f","test","up","0","image-keyboard-response","87","238471","0.0-12.0-2.15","congruent","2"
"1385.199999999255","jsPsych/img/22_big.jpg","j","test","up","0","image-keyboard-response","90","242973","0.0-12.0-2.16","congruent","2"
"1307.5","jsPsych/img/01_big.jpg","f","test","down","0","image-keyboard-response","93","247403","0.0-12.0-2.17","incongruent","2"
"3062.10000000149","jsPsych/img/18_big.jpg","f","test","down","0","image-keyboard-response","96","253831","0.0-12.0-2.18","incongruent","2"
"5293.699999999255","jsPsych/img/26_big.jpg","j","test","up","0","image-keyboard-response","99","263234","0.0-12.0-2.19","incongruent","2"
"4952.79999999702","jsPsych/img/05_big.jpg","j","test","down","0","image-keyboard-response","102","271308","0.0-12.0-2.20","congruent","2"
"10331.60000000149","jsPsych/img/30_big.jpg","j","test","up","0","image-keyboard-response","105","285499","0.0-12.0-2.21","congruent","2"
"1030","jsPsych/img/14_big.jpg","f","test","down","0","image-keyboard-response","108","289885","0.0-12.0-2.22","incongruent","2"
"3319.10000000149","jsPsych/img/34_big.jpg","j","test","up","0","image-keyboard-response","111","295829","0.0-12.0-2.23","incongruent","2"
"1273.4000000022352","jsPsych/img/21_big.jpg","f","test","up","0","image-keyboard-response","114","299971","0.0-12.0-2.24","incongruent","2"
"1540.199999999255","jsPsych/img/33_big.jpg","f","test","up","0","image-keyboard-response","117","305371","0.0-12.0-2.25","congruent","2"
"2124.2999999970198","jsPsych/img/10_big.jpg","j","test","down","0","image-keyboard-response","120","310618","0.0-12.0-2.26","incongruent","2"
"2846.699999999255","jsPsych/img/16_big.jpg","j","test","down","0","image-keyboard-response","123","317335","0.0-12.0-2.27","congruent","2"
"4069.5","jsPsych/img/04_big.jpg","j","test","down","0","image-keyboard-response","126","325522","0.0-12.0-2.28","incongruent","2"
"1031.800000000745","jsPsych/img/28_big.jpg","j","test","up","0","image-keyboard-response","129","329181","0.0-12.0-2.29","congruent","2"
"2711.5","jsPsych/img/11_big.jpg","f","test","down","0","image-keyboard-response","132","336011","0.0-12.0-2.30","congruent","2"
"1165.199999999255","jsPsych/img/09_big.jpg","j","test","down","0","image-keyboard-response","135","340784","0.0-12.0-2.31","incongruent","2"
"4954.419999849051","jsPsych/img/04_big.jpg","f","test","down","0","image-keyboard-response","42","174363","0.0-12.0-2.0","incongruent","2"
"3475.2950000111014","jsPsych/img/24_big.jpg","j","test","up","0","image-keyboard-response","45","181214","0.0-12.0-2.1","congruent","2"
"6807.539999950677","jsPsych/img/28_big.jpg","j","test","up","0","image-keyboard-response","48","190895","0.0-12.0-2.2","congruent","2"
"2541.990000056103","jsPsych/img/19_big.jpg","f","test","up","0","image-keyboard-response","51","196064","0.0-12.0-2.3","congruent","2"
"1999.0449999459088","jsPsych/img/09_big.jpg","f","test","down","0","image-keyboard-response","54","201684","0.0-12.0-2.4","incongruent","2"
"4163.984999991953","jsPsych/img/23_big.jpg","j","test","up","0","image-keyboard-response","57","209224","0.0-12.0-2.5","congruent","2"
"3256.950000068173","jsPsych/img/18_big.jpg","f","test","down","0","image-keyboard-response","60","216104","0.0-12.0-2.6","incongruent","2"
"4869.394999928772","jsPsych/img/21_big.jpg","j","test","up","0","image-keyboard-response","63","224595","0.0-12.0-2.7","incongruent","2"
"2647.469999967143","jsPsych/img/15_big.jpg","f","test","down","0","image-keyboard-response","66","231115","0.0-12.0-2.8","incongruent","2"
"2306.4649999141693","jsPsych/img/35_big.jpg","j","test","up","0","image-keyboard-response","69","237294","0.0-12.0-2.9","congruent","2"
"3027.8049998451024","jsPsych/img/10_big.jpg","f","test","down","0","image-keyboard-response","72","243945","0.0-12.0-2.10","incongruent","2"
"6098.130000056699","jsPsych/img/16_big.jpg","f","test","down","0","image-keyboard-response","75","252915","0.0-12.0-2.11","congruent","2"
"1758.3650001324713","jsPsych/img/30_big.jpg","f","test","up","0","image-keyboard-response","78","258295","0.0-12.0-2.12","congruent","2"
"2087.515000021085","jsPsych/img/06_big.jpg","j","test","down","0","image-keyboard-response","81","263255","0.0-12.0-2.13","incongruent","2"
"1200.1349998172373","jsPsych/img/22_big.jpg","f","test","up","0","image-keyboard-response","84","268080","0.0-12.0-2.14","incongruent","2"
"1469.7549999691546","jsPsych/img/27_big.jpg","j","test","up","0","image-keyboard-response","87","272666","0.0-12.0-2.15","congruent","2"
"8949.764999793842","jsPsych/img/13_big.jpg","f","test","down","0","image-keyboard-response","90","284737","0.0-12.0-2.16","incongruent","2"
"2922.559999860823","jsPsych/img/33_big.jpg","j","test","up","0","image-keyboard-response","93","291527","0.0-12.0-2.17","congruent","2"
"4188.30500007607","jsPsych/img/26_big.jpg","f","test","up","0","image-keyboard-response","96","299334","0.0-12.0-2.18","congruent","2"
"8899.669999955222","jsPsych/img/14_big.jpg","f","test","down","0","image-keyboard-response","99","312105","0.0-12.0-2.19","incongruent","2"
"1659.3100000172853","jsPsych/img/34_big.jpg","f","test","up","0","image-keyboard-response","102","317385","0.0-12.0-2.20","congruent","2"
"3059.469999978319","jsPsych/img/32_big.jpg","j","test","up","0","image-keyboard-response","105","323815","0.0-12.0-2.21","congruent","2"
"2649.354999884963","jsPsych/img/02_big.jpg","f","test","down","0","image-keyboard-response","108","330334","0.0-12.0-2.22","congruent","2"
"3160.4899999219924","jsPsych/img/01_big.jpg","f","test","down","0","image-keyboard-response","111","336866","0.0-12.0-2.23","incongruent","2"
"2150.175000075251","jsPsych/img/03_big.jpg","j","test","down","0","image-keyboard-response","114","342636","0.0-12.0-2.24","congruent","2"
"6382.364999968559","jsPsych/img/36_big.jpg","f","test","up","0","image-keyboard-response","117","352886","0.0-12.0-2.25","incongruent","2"
"4779.839999973774","jsPsych/img/12_big.jpg","f","test","down","0","image-keyboard-response","120","361537","0.0-12.0-2.26","congruent","2"
"4630.170000018552","jsPsych/img/05_big.jpg","f","test","down","0","image-keyboard-response","123","370037","0.0-12.0-2.27","incongruent","2"
"2980.3800000809133","jsPsych/img/29_big.jpg","j","test","up","0","image-keyboard-response","126","376637","0.0-12.0-2.28","incongruent","2"
"2651.670000050217","jsPsych/img/07_big.jpg","f","test","down","0","image-keyboard-response","129","382908","0.0-12.0-2.29","incongruent","2"
"1871.2150000501424","jsPsych/img/11_big.jpg","j","test","down","0","image-keyboard-response","132","388898","0.0-12.0-2.30","congruent","2"
"4921.614999882877","jsPsych/img/25_big.jpg","j","test","up","0","image-keyboard-response","135","397188","0.0-12.0-2.31","incongruent","2"
