"rt","stimulus","response","task","condition","random","trial_type","trial_index","time_elapsed","internal_node_id","match","hp_test"
"6486.60000038147","jsPsych/img/29_big.jpg","j","test","up","0","image-keyboard-response","42","144071","0.0-12.0-2.0","congruent","2"
"6949.900000095367","jsPsych/img/14_big.jpg","f","test","down","0","image-keyboard-response","45","154399","0.0-12.0-2.1","congruent","2"
"3577.0999999046326","jsPsych/img/36_big.jpg","f","test","up","0","image-keyboard-response","48","161362","0.0-12.0-2.2","congruent","2"
"3089","jsPsych/img/05_big.jpg","f","test","down","0","image-keyboard-response","51","168582","0.0-12.0-2.3","incongruent","2"
"1762.8000001907349","jsPsych/img/18_big.jpg","j","test","down","0","image-keyboard-response","54","172979","0.0-12.0-2.4","incongruent","2"
"2426.5","jsPsych/img/04_big.jpg","f","test","down","0","image-keyboard-response","57","178035","0.0-12.0-2.5","incongruent","2"
"3099","jsPsych/img/34_big.jpg","j","test","up","0","image-keyboard-response","60","184509","0.0-12.0-2.6","congruent","2"
"3660.1000003814697","jsPsych/img/25_big.jpg","f","test","up","0","image-keyboard-response","63","190798","0.0-12.0-2.7","congruent","2"
"3850.5","jsPsych/img/24_big.jpg","j","test","up","0","image-keyboard-response","66","198051","0.0-12.0-2.8","congruent","2"
"3335.4000000953674","jsPsych/img/01_big.jpg","j","test","down","0","image-keyboard-response","69","205525","0.0-12.0-2.9","incongruent","2"
"3124.3999996185303","jsPsych/img/28_big.jpg","j","test","up","0","image-keyboard-response","72","212027","0.0-12.0-2.10","congruent","2"
"1742.6999998092651","jsPsych/img/26_big.jpg","j","test","up","0","image-keyboard-response","75","217399","0.0-12.0-2.11","congruent","2"
"3961.5","jsPsych/img/23_big.jpg","j","test","up","0","image-keyboard-response","78","224738","0.0-12.0-2.12","congruent","2"
"4242.599999904633","jsPsych/img/33_big.jpg","f","test","up","0","image-keyboard-response","81","232859","0.0-12.0-2.13","congruent","2"
"2098.0999999046326","jsPsych/img/02_big.jpg","f","test","down","0","image-keyboard-response","84","238835","0.0-12.0-2.14","incongruent","2"
"2607.4000000953674","jsPsych/img/12_big.jpg","f","test","down","0","image-keyboard-response","87","245564","0.0-12.0-2.15","incongruent","2"
"4608.800000190735","jsPsych/img/10_big.jpg","f","test","down","0","image-keyboard-response","90","253543","0.0-12.0-2.16","incongruent","2"
"3256.3999996185303","jsPsych/img/32_big.jpg","j","test","up","0","image-keyboard-response","93","259931","0.0-12.0-2.17","congruent","2"
"1561.8000001907349","jsPsych/img/06_big.jpg","j","test","down","0","image-keyboard-response","96","265621","0.0-12.0-2.18","incongruent","2"
"2971.5999999046326","jsPsych/img/13_big.jpg","j","test","down","0","image-keyboard-response","99","271960","0.0-12.0-2.19","incongruent","2"
"2426.5","jsPsych/img/21_big.jpg","f","test","up","0","image-keyboard-response","102","277528","0.0-12.0-2.20","congruent","2"
"2728.5","jsPsych/img/19_big.jpg","f","test","up","0","image-keyboard-response","105","283168","0.0-12.0-2.21","congruent","2"
"5413.900000095367","jsPsych/img/35_big.jpg","f","test","up","0","image-keyboard-response","108","291212","0.0-12.0-2.22","incongruent","2"
"4772.900000095367","jsPsych/img/07_big.jpg","f","test","down","0","image-keyboard-response","111","298615","0.0-12.0-2.23","incongruent","2"
"4619.5","jsPsych/img/30_big.jpg","j","test","up","0","image-keyboard-response","114","306117","0.0-12.0-2.24","congruent","2"
"3842.5","jsPsych/img/09_big.jpg","f","test","down","0","image-keyboard-response","117","313083","0.0-12.0-2.25","incongruent","2"
"2320.800000190735","jsPsych/img/15_big.jpg","f","test","down","0","image-keyboard-response","120","318772","0.0-12.0-2.26","incongruent","2"
"3726.199999809265","jsPsych/img/27_big.jpg","f","test","up","0","image-keyboard-response","123","325131","0.0-12.0-2.27","congruent","2"
"3516.5999999046326","jsPsych/img/22_big.jpg","f","test","up","0","image-keyboard-response","126","331282","0.0-12.0-2.28","congruent","2"
"1277.2000002861023","jsPsych/img/03_big.jpg","f","test","down","0","image-keyboard-response","129","335191","0.0-12.0-2.29","incongruent","2"
"3892.7000002861023","jsPsych/img/16_big.jpg","f","test","down","0","image-keyboard-response","132","343205","0.0-12.0-2.30","incongruent","2"
"2271.5","jsPsych/img/11_big.jpg","j","test","down","0","image-keyboard-response","135","348353","0.0-12.0-2.31","incongruent","2"
"2093.2999999523163","jsPsych/img/14_big.jpg","f","test","down","0","image-keyboard-response","42","181243","0.0-12.0-2.0","congruent","2"
"4710.700000047684","jsPsych/img/22_big.jpg","f","test","up","0","image-keyboard-response","45","189843","0.0-12.0-2.1","congruent","2"
"2272.2000000476837","jsPsych/img/35_big.jpg","j","test","up","0","image-keyboard-response","48","196251","0.0-12.0-2.2","congruent","2"
"3205","jsPsych/img/10_big.jpg","j","test","down","0","image-keyboard-response","51","203585","0.0-12.0-2.3","incongruent","2"
"4323","jsPsych/img/26_big.jpg","j","test","up","0","image-keyboard-response","54","210537","0.0-12.0-2.4","congruent","2"
"1553","jsPsych/img/19_big.jpg","f","test","up","0","image-keyboard-response","57","215964","0.0-12.0-2.5","incongruent","2"
"3746.899999856949","jsPsych/img/36_big.jpg","j","test","up","0","image-keyboard-response","60","223091","0.0-12.0-2.6","congruent","2"
"4440.900000095367","jsPsych/img/34_big.jpg","j","test","up","0","image-keyboard-response","63","231670","0.0-12.0-2.7","incongruent","2"
"6785.199999809265","jsPsych/img/02_big.jpg","f","test","down","0","image-keyboard-response","66","241346","0.0-12.0-2.8","congruent","2"
"2258.399999856949","jsPsych/img/18_big.jpg","j","test","down","0","image-keyboard-response","69","247482","0.0-12.0-2.9","congruent","2"
"2524.0999999046326","jsPsych/img/24_big.jpg","f","test","up","0","image-keyboard-response","72","253646","0.0-12.0-2.10","congruent","2"
"2231.2000000476837","jsPsych/img/27_big.jpg","f","test","up","0","image-keyboard-response","75","259993","0.0-12.0-2.11","congruent","2"
"2983.399999856949","jsPsych/img/12_big.jpg","j","test","down","0","image-keyboard-response","78","266857","0.0-12.0-2.12","incongruent","2"
"1974.7999999523163","jsPsych/img/09_big.jpg","f","test","down","0","image-keyboard-response","81","271717","0.0-12.0-2.13","incongruent","2"
"2089.7999999523163","jsPsych/img/28_big.jpg","f","test","up","0","image-keyboard-response","84","277436","0.0-12.0-2.14","congruent","2"
"1893.8000001907349","jsPsych/img/33_big.jpg","j","test","up","0","image-keyboard-response","87","283215","0.0-12.0-2.15","incongruent","2"
"2979.7000000476837","jsPsych/img/30_big.jpg","f","test","up","0","image-keyboard-response","90","289086","0.0-12.0-2.16","incongruent","2"
"2350.399999856949","jsPsych/img/13_big.jpg","f","test","down","0","image-keyboard-response","93","295325","0.0-12.0-2.17","incongruent","2"
"2448.300000190735","jsPsych/img/06_big.jpg","f","test","down","0","image-keyboard-response","96","301149","0.0-12.0-2.18","incongruent","2"
"1453.2999999523163","jsPsych/img/23_big.jpg","j","test","up","0","image-keyboard-response","99","306482","0.0-12.0-2.19","congruent","2"
"1599.2000000476837","jsPsych/img/04_big.jpg","j","test","down","0","image-keyboard-response","102","311204","0.0-12.0-2.20","incongruent","2"
"1669.2000000476837","jsPsych/img/01_big.jpg","f","test","down","0","image-keyboard-response","105","316512","0.0-12.0-2.21","incongruent","2"
"3556.7000000476837","jsPsych/img/32_big.jpg","f","test","up","0","image-keyboard-response","108","323199","0.0-12.0-2.22","incongruent","2"
"4799.399999856949","jsPsych/img/11_big.jpg","f","test","down","0","image-keyboard-response","111","332136","0.0-12.0-2.23","incongruent","2"
"4685.5","jsPsych/img/29_big.jpg","f","test","up","0","image-keyboard-response","114","339445","0.0-12.0-2.24","congruent","2"
"2213.5","jsPsych/img/25_big.jpg","j","test","up","0","image-keyboard-response","117","344297","0.0-12.0-2.25","congruent","2"
"1530.7999999523163","jsPsych/img/15_big.jpg","f","test","down","0","image-keyboard-response","120","349452","0.0-12.0-2.26","incongruent","2"
"1766.2999999523163","jsPsych/img/21_big.jpg","f","test","up","0","image-keyboard-response","123","354853","0.0-12.0-2.27","congruent","2"
"1847.5999999046326","jsPsych/img/05_big.jpg","j","test","down","0","image-keyboard-response","126","359575","0.0-12.0-2.28","congruent","2"
"1944.2000000476837","jsPsych/img/16_big.jpg","f","test","down","0","image-keyboard-response","129","365655","0.0-12.0-2.29","congruent","2"
"1656.4000000953674","jsPsych/img/07_big.jpg","j","test","down","0","image-keyboard-response","132","371187","0.0-12.0-2.30","incongruent","2"
"1269.5","jsPsych/img/03_big.jpg","f","test","down","0","image-keyboard-response","135","375324","0.0-12.0-2.31","incongruent","2"
"2451.2000000001863","jsPsych/img/33_big.jpg","j","test","up","0","image-keyboard-response","42","130064","0.0-12.0-2.0","incongruent","2"
"3168.0999999996275","jsPsych/img/06_big.jpg","j","test","down","0","image-keyboard-response","45","135842","0.0-12.0-2.1","congruent","2"
"901.2999999998137","jsPsych/img/27_big.jpg","f","test","up","0","image-keyboard-response","48","139348","0.0-12.0-2.2","congruent","2"
"1794.2000000001863","jsPsych/img/29_big.jpg","j","test","up","0","image-keyboard-response","51","143754","0.0-12.0-2.3","incongruent","2"
"1894.5","jsPsych/img/16_big.jpg","f","test","down","0","image-keyboard-response","54","149508","0.0-12.0-2.4","congruent","2"
"1323.6000000005588","jsPsych/img/18_big.jpg","f","test","down","0","image-keyboard-response","57","153688","0.0-12.0-2.5","congruent","2"
"2046","jsPsych/img/07_big.jpg","f","test","down","0","image-keyboard-response","60","159595","0.0-12.0-2.6","congruent","2"
"1514.3999999994412","jsPsych/img/02_big.jpg","f","test","down","0","image-keyboard-response","63","164221","0.0-12.0-2.7","incongruent","2"
"1211.7999999998137","jsPsych/img/19_big.jpg","f","test","up","0","image-keyboard-response","66","169540","0.0-12.0-2.8","incongruent","2"
"1914.2999999998137","jsPsych/img/24_big.jpg","f","test","up","0","image-keyboard-response","69","174313","0.0-12.0-2.9","incongruent","2"
"4371.9000000003725","jsPsych/img/34_big.jpg","j","test","up","0","image-keyboard-response","72","181296","0.0-12.0-2.10","incongruent","2"
"1124.199999999255","jsPsych/img/26_big.jpg","f","test","up","0","image-keyboard-response","75","185778","0.0-12.0-2.11","incongruent","2"
"949.4000000003725","jsPsych/img/30_big.jpg","j","test","up","0","image-keyboard-response","78","190832","0.0-12.0-2.12","congruent","2"
"831.7999999998137","jsPsych/img/23_big.jpg","f","test","up","0","image-keyboard-response","81","194776","0.0-12.0-2.13","incongruent","2"
"1217.3999999994412","jsPsych/img/11_big.jpg","f","test","down","0","image-keyboard-response","84","200102","0.0-12.0-2.14","incongruent","2"
"1619.5999999996275","jsPsych/img/15_big.jpg","j","test","down","0","image-keyboard-response","87","205325","0.0-12.0-2.15","incongruent","2"
"2889","jsPsych/img/13_big.jpg","f","test","down","0","image-keyboard-response","90","211821","0.0-12.0-2.16","incongruent","2"
"801","jsPsych/img/09_big.jpg","f","test","down","0","image-keyboard-response","93","215234","0.0-12.0-2.17","congruent","2"
"886.7999999998137","jsPsych/img/22_big.jpg","j","test","up","0","image-keyboard-response","96","219977","0.0-12.0-2.18","congruent","2"
"1126","jsPsych/img/28_big.jpg","j","test","up","0","image-keyboard-response","99","223960","0.0-12.0-2.19","incongruent","2"
"1199.8999999994412","jsPsych/img/04_big.jpg","f","test","down","0","image-keyboard-response","102","229273","0.0-12.0-2.20","incongruent","2"
"1216.2000000001863","jsPsych/img/35_big.jpg","f","test","up","0","image-keyboard-response","105","233096","0.0-12.0-2.21","congruent","2"
"1067.3999999994412","jsPsych/img/21_big.jpg","f","test","up","0","image-keyboard-response","108","237274","0.0-12.0-2.22","incongruent","2"
"932.2000000001863","jsPsych/img/32_big.jpg","f","test","up","0","image-keyboard-response","111","242067","0.0-12.0-2.23","incongruent","2"
"722.9000000003725","jsPsych/img/03_big.jpg","j","test","down","0","image-keyboard-response","114","246148","0.0-12.0-2.24","incongruent","2"
"699.5999999996275","jsPsych/img/01_big.jpg","j","test","down","0","image-keyboard-response","117","249707","0.0-12.0-2.25","incongruent","2"
"879.5999999996275","jsPsych/img/12_big.jpg","j","test","down","0","image-keyboard-response","120","254446","0.0-12.0-2.26","incongruent","2"
"1227.3999999994412","jsPsych/img/25_big.jpg","f","test","up","0","image-keyboard-response","123","258530","0.0-12.0-2.27","congruent","2"
"866","jsPsych/img/14_big.jpg","f","test","down","0","image-keyboard-response","126","262507","0.0-12.0-2.28","congruent","2"
"2085.9000000003725","jsPsych/img/05_big.jpg","f","test","down","0","image-keyboard-response","129","268196","0.0-12.0-2.29","congruent","2"
"861.5","jsPsych/img/10_big.jpg","f","test","down","0","image-keyboard-response","132","272917","0.0-12.0-2.30","congruent","2"
"698.3999999994412","jsPsych/img/36_big.jpg","j","test","up","0","image-keyboard-response","135","276972","0.0-12.0-2.31","incongruent","2"
"10693.30000000447","jsPsych/img/24_big.jpg","f","test","up","0","image-keyboard-response","42","174692","0.0-12.0-2.0","incongruent","2"
"8302.29999999702","jsPsych/img/13_big.jpg","j","test","down","0","image-keyboard-response","45","186098","0.0-12.0-2.1","congruent","2"
"8397.89999999851","jsPsych/img/07_big.jpg","j","test","down","0","image-keyboard-response","48","197099","0.0-12.0-2.2","incongruent","2"
"14333","jsPsych/img/11_big.jpg","f","test","down","0","image-keyboard-response","51","215535","0.0-12.0-2.3","incongruent","2"
"12631.79999999702","jsPsych/img/33_big.jpg","j","test","up","0","image-keyboard-response","54","231021","0.0-12.0-2.4","incongruent","2"
"18784.89999999851","jsPsych/img/10_big.jpg","j","test","down","0","image-keyboard-response","57","253660","0.0-12.0-2.5","congruent","2"
"9548.60000000149","jsPsych/img/29_big.jpg","j","test","up","0","image-keyboard-response","60","266812","0.0-12.0-2.6","congruent","2"
"6592.5","jsPsych/img/22_big.jpg","f","test","up","0","image-keyboard-response","63","277009","0.0-12.0-2.7","congruent","2"
"14678.20000000298","jsPsych/img/23_big.jpg","f","test","up","0","image-keyboard-response","66","295541","0.0-12.0-2.8","congruent","2"
"6404.5","jsPsych/img/06_big.jpg","f","test","down","0","image-keyboard-response","69","305801","0.0-12.0-2.9","congruent","2"
"9026.19999999553","jsPsych/img/21_big.jpg","j","test","up","0","image-keyboard-response","72","318433","0.0-12.0-2.10","incongruent","2"
"8710.19999999553","jsPsych/img/05_big.jpg","j","test","down","0","image-keyboard-response","75","329996","0.0-12.0-2.11","congruent","2"
"5548.89999999851","jsPsych/img/32_big.jpg","j","test","up","0","image-keyboard-response","78","338149","0.0-12.0-2.12","incongruent","2"
"1846.2999999970198","jsPsych/img/26_big.jpg","f","test","up","0","image-keyboard-response","81","343849","0.0-12.0-2.13","congruent","2"
"6473.10000000149","jsPsych/img/14_big.jpg","f","test","down","0","image-keyboard-response","84","353925","0.0-12.0-2.14","incongruent","2"
"5984.10000000149","jsPsych/img/09_big.jpg","f","test","down","0","image-keyboard-response","87","363011","0.0-12.0-2.15","congruent","2"
"13782.5","jsPsych/img/25_big.jpg","j","test","up","0","image-keyboard-response","90","380149","0.0-12.0-2.16","congruent","2"
"3461.5","jsPsych/img/27_big.jpg","f","test","up","0","image-keyboard-response","93","387465","0.0-12.0-2.17","congruent","2"
"3684.6999999955297","jsPsych/img/16_big.jpg","f","test","down","0","image-keyboard-response","96","394752","0.0-12.0-2.18","congruent","2"
"2395.60000000149","jsPsych/img/01_big.jpg","f","test","down","0","image-keyboard-response","99","401253","0.0-12.0-2.19","incongruent","2"
"2256.89999999851","jsPsych/img/30_big.jpg","j","test","up","0","image-keyboard-response","102","406112","0.0-12.0-2.20","incongruent","2"
"4171.29999999702","jsPsych/img/35_big.jpg","j","test","up","0","image-keyboard-response","105","413387","0.0-12.0-2.21","incongruent","2"
"4341.70000000298","jsPsych/img/36_big.jpg","f","test","up","0","image-keyboard-response","108","421082","0.0-12.0-2.22","congruent","2"
"5059.0999999940395","jsPsych/img/03_big.jpg","f","test","down","0","image-keyboard-response","111","429746","0.0-12.0-2.23","incongruent","2"
"2850.39999999851","jsPsych/img/18_big.jpg","f","test","down","0","image-keyboard-response","114","436199","0.0-12.0-2.24","incongruent","2"
"2864","jsPsych/img/15_big.jpg","f","test","down","0","image-keyboard-response","117","442167","0.0-12.0-2.25","incongruent","2"
"3561.39999999851","jsPsych/img/28_big.jpg","f","test","up","0","image-keyboard-response","120","448331","0.0-12.0-2.26","congruent","2"
"3194.60000000149","jsPsych/img/34_big.jpg","f","test","up","0","image-keyboard-response","123","455379","0.0-12.0-2.27","congruent","2"
"8288.19999999553","jsPsych/img/19_big.jpg","f","test","up","0","image-keyboard-response","126","467771","0.0-12.0-2.28","congruent","2"
"3276.4000000059605","jsPsych/img/02_big.jpg","f","test","down","0","image-keyboard-response","129","474651","0.0-12.0-2.29","incongruent","2"
"7875.10000000149","jsPsych/img/04_big.jpg","f","test","down","0","image-keyboard-response","132","485130","0.0-12.0-2.30","congruent","2"
"5256.60000000149","jsPsych/img/12_big.jpg","j","test","down","0","image-keyboard-response","135","494240","0.0-12.0-2.31","congruent","2"
"4965.300000011921","jsPsych/img/04_big.jpg","f","test","down","0","image-keyboard-response","42","185130","0.0-12.0-2.0","congruent","2"
"6243.5999999940395","jsPsych/img/25_big.jpg","f","test","up","0","image-keyboard-response","45","194984","0.0-12.0-2.1","congruent","2"
"3119.4000000059605","jsPsych/img/01_big.jpg","f","test","down","0","image-keyboard-response","48","200963","0.0-12.0-2.2","incongruent","2"
"7048.5","jsPsych/img/12_big.jpg","f","test","down","0","image-keyboard-response","51","211372","0.0-12.0-2.3","congruent","2"
"3955.199999988079","jsPsych/img/34_big.jpg","j","test","up","0","image-keyboard-response","54","218939","0.0-12.0-2.4","congruent","2"
"7255.199999988079","jsPsych/img/09_big.jpg","j","test","down","0","image-keyboard-response","57","228806","0.0-12.0-2.5","congruent","2"
"2760.5","jsPsych/img/30_big.jpg","j","test","up","0","image-keyboard-response","60","234678","0.0-12.0-2.6","congruent","2"
"5645.200000017881","jsPsych/img/10_big.jpg","j","test","down","0","image-keyboard-response","63","244438","0.0-12.0-2.7","incongruent","2"
"2219.2000000178814","jsPsych/img/11_big.jpg","f","test","down","0","image-keyboard-response","66","249267","0.0-12.0-2.8","incongruent","2"
"4507.4000000059605","jsPsych/img/35_big.jpg","f","test","up","0","image-keyboard-response","69","256636","0.0-12.0-2.9","incongruent","2"
"2018.4000000059605","jsPsych/img/28_big.jpg","f","test","up","0","image-keyboard-response","72","262016","0.0-12.0-2.10","congruent","2"
"3661.5","jsPsych/img/36_big.jpg","f","test","up","0","image-keyboard-response","75","269286","0.0-12.0-2.11","congruent","2"
"3265.2000000178814","jsPsych/img/07_big.jpg","j","test","down","0","image-keyboard-response","78","275662","0.0-12.0-2.12","incongruent","2"
"2393","jsPsych/img/03_big.jpg","f","test","down","0","image-keyboard-response","81","281670","0.0-12.0-2.13","incongruent","2"
"6345.600000023842","jsPsych/img/15_big.jpg","j","test","down","0","image-keyboard-response","84","292129","0.0-12.0-2.14","incongruent","2"
"3043","jsPsych/img/27_big.jpg","f","test","up","0","image-keyboard-response","87","298036","0.0-12.0-2.15","congruent","2"
"2328.5","jsPsych/img/05_big.jpg","f","test","down","0","image-keyboard-response","90","302975","0.0-12.0-2.16","incongruent","2"
"3145","jsPsych/img/32_big.jpg","f","test","up","0","image-keyboard-response","93","309983","0.0-12.0-2.17","incongruent","2"
"3244.5","jsPsych/img/33_big.jpg","f","test","up","0","image-keyboard-response","96","316089","0.0-12.0-2.18","incongruent","2"
"2688","jsPsych/img/13_big.jpg","j","test","down","0","image-keyboard-response","99","322641","0.0-12.0-2.19","congruent","2"
"5333.300000011921","jsPsych/img/19_big.jpg","j","test","up","0","image-keyboard-response","102","330836","0.0-12.0-2.20","incongruent","2"
"2047.1000000238419","jsPsych/img/23_big.jpg","j","test","up","0","image-keyboard-response","105","336747","0.0-12.0-2.21","congruent","2"
"2178.9000000059605","jsPsych/img/24_big.jpg","j","test","up","0","image-keyboard-response","108","342281","0.0-12.0-2.22","congruent","2"
"3828.899999976158","jsPsych/img/21_big.jpg","j","test","up","0","image-keyboard-response","111","348720","0.0-12.0-2.23","congruent","2"
"4301.699999988079","jsPsych/img/18_big.jpg","j","test","down","0","image-keyboard-response","114","356633","0.0-12.0-2.24","congruent","2"
"1454","jsPsych/img/06_big.jpg","f","test","down","0","image-keyboard-response","117","361197","0.0-12.0-2.25","incongruent","2"
"1793.5999999940395","jsPsych/img/14_big.jpg","f","test","down","0","image-keyboard-response","120","365853","0.0-12.0-2.26","incongruent","2"
"3146.5999999940395","jsPsych/img/02_big.jpg","j","test","down","0","image-keyboard-response","123","371605","0.0-12.0-2.27","congruent","2"
"2897.199999988079","jsPsych/img/22_big.jpg","f","test","up","0","image-keyboard-response","126","378364","0.0-12.0-2.28","incongruent","2"
"1828.8999999761581","jsPsych/img/16_big.jpg","j","test","down","0","image-keyboard-response","129","383056","0.0-12.0-2.29","incongruent","2"
"1449.7999999821186","jsPsych/img/26_big.jpg","f","test","up","0","image-keyboard-response","132","387865","0.0-12.0-2.30","congruent","2"
"4811.700000017881","jsPsych/img/29_big.jpg","f","test","up","0","image-keyboard-response","135","396538","0.0-12.0-2.31","congruent","2"
"2111","jsPsych/img/10_big.jpg","j","test","down","0","image-keyboard-response","42","3519442","0.0-12.0-2.0","incongruent","2"
"2134.0999999046326","jsPsych/img/24_big.jpg","f","test","up","0","image-keyboard-response","45","3524441","0.0-12.0-2.1","congruent","2"
"2138.2999999523163","jsPsych/img/34_big.jpg","f","test","up","0","image-keyboard-response","48","3529216","0.0-12.0-2.2","incongruent","2"
"2071","jsPsych/img/18_big.jpg","f","test","down","0","image-keyboard-response","51","3534168","0.0-12.0-2.3","incongruent","2"
"2364.5999999046326","jsPsych/img/06_big.jpg","f","test","down","0","image-keyboard-response","54","3539161","0.0-12.0-2.4","incongruent","2"
"5104.599999904633","jsPsych/img/02_big.jpg","f","test","down","0","image-keyboard-response","57","3546883","0.0-12.0-2.5","congruent","2"
"1640","jsPsych/img/15_big.jpg","j","test","down","0","image-keyboard-response","60","3551906","0.0-12.0-2.6","congruent","2"
"1456.5999999046326","jsPsych/img/03_big.jpg","f","test","down","0","image-keyboard-response","63","3556234","0.0-12.0-2.7","incongruent","2"
"1886","jsPsych/img/25_big.jpg","j","test","up","0","image-keyboard-response","66","3561996","0.0-12.0-2.8","congruent","2"
"949","jsPsych/img/27_big.jpg","j","test","up","0","image-keyboard-response","69","3565823","0.0-12.0-2.9","congruent","2"
"2184.899999856949","jsPsych/img/14_big.jpg","j","test","down","0","image-keyboard-response","72","3571627","0.0-12.0-2.10","congruent","2"
"2592.5999999046326","jsPsych/img/32_big.jpg","f","test","up","0","image-keyboard-response","75","3577590","0.0-12.0-2.11","incongruent","2"
"2251.300000190735","jsPsych/img/11_big.jpg","f","test","down","0","image-keyboard-response","78","3582465","0.0-12.0-2.12","incongruent","2"
"2248.5999999046326","jsPsych/img/12_big.jpg","f","test","down","0","image-keyboard-response","81","3587842","0.0-12.0-2.13","congruent","2"
"1807.5999999046326","jsPsych/img/21_big.jpg","f","test","up","0","image-keyboard-response","84","3593759","0.0-12.0-2.14","incongruent","2"
"1283.2999999523163","jsPsych/img/19_big.jpg","f","test","up","0","image-keyboard-response","87","3598415","0.0-12.0-2.15","congruent","2"
"4292.100000143051","jsPsych/img/09_big.jpg","f","test","down","0","image-keyboard-response","90","3606325","0.0-12.0-2.16","congruent","2"
"2144.0999999046326","jsPsych/img/28_big.jpg","j","test","up","0","image-keyboard-response","93","3611347","0.0-12.0-2.17","incongruent","2"
"1814.4000000953674","jsPsych/img/23_big.jpg","f","test","up","0","image-keyboard-response","96","3616773","0.0-12.0-2.18","congruent","2"
"1582.3000001907349","jsPsych/img/33_big.jpg","j","test","up","0","image-keyboard-response","99","3621481","0.0-12.0-2.19","congruent","2"
"2868.7000000476837","jsPsych/img/29_big.jpg","f","test","up","0","image-keyboard-response","102","3627971","0.0-12.0-2.20","incongruent","2"
"1506.2000000476837","jsPsych/img/07_big.jpg","j","test","down","0","image-keyboard-response","105","3632592","0.0-12.0-2.21","incongruent","2"
"2478.899999856949","jsPsych/img/30_big.jpg","f","test","up","0","image-keyboard-response","108","3638690","0.0-12.0-2.22","incongruent","2"
"1045.1999998092651","jsPsych/img/13_big.jpg","j","test","down","0","image-keyboard-response","111","3643861","0.0-12.0-2.23","incongruent","2"
"1120.2000000476837","jsPsych/img/04_big.jpg","f","test","down","0","image-keyboard-response","114","3647602","0.0-12.0-2.24","incongruent","2"
"1064.0999999046326","jsPsych/img/01_big.jpg","j","test","down","0","image-keyboard-response","117","3652042","0.0-12.0-2.25","incongruent","2"
"1459.8000001907349","jsPsych/img/36_big.jpg","j","test","up","0","image-keyboard-response","120","3656379","0.0-12.0-2.26","incongruent","2"
"896.7000000476837","jsPsych/img/22_big.jpg","j","test","up","0","image-keyboard-response","123","3660401","0.0-12.0-2.27","incongruent","2"
"2218","jsPsych/img/16_big.jpg","f","test","down","0","image-keyboard-response","126","3666483","0.0-12.0-2.28","congruent","2"
"1291.2000000476837","jsPsych/img/35_big.jpg","f","test","up","0","image-keyboard-response","129","3671160","0.0-12.0-2.29","incongruent","2"
"2215.7999999523163","jsPsych/img/05_big.jpg","j","test","down","0","image-keyboard-response","132","3676498","0.0-12.0-2.30","congruent","2"
"941.5","jsPsych/img/26_big.jpg","j","test","up","0","image-keyboard-response","135","3680313","0.0-12.0-2.31","incongruent","2"
"17165.599999904633","jsPsych/img/23_big.jpg","f","test","up","0","image-keyboard-response","42","216053","0.0-12.0-2.0","congruent","2"
"11632.599999904633","jsPsych/img/09_big.jpg","j","test","down","0","image-keyboard-response","45","230568","0.0-12.0-2.1","incongruent","2"
"9119.399999856949","jsPsych/img/12_big.jpg","f","test","down","0","image-keyboard-response","48","243803","0.0-12.0-2.2","congruent","2"
"15418.200000047684","jsPsych/img/21_big.jpg","f","test","up","0","image-keyboard-response","51","261847","0.0-12.0-2.3","congruent","2"
"11300","jsPsych/img/05_big.jpg","f","test","down","0","image-keyboard-response","54","276272","0.0-12.0-2.4","incongruent","2"
"12650.699999809265","jsPsych/img/33_big.jpg","j","test","up","0","image-keyboard-response","57","292045","0.0-12.0-2.5","congruent","2"
"13292.800000190735","jsPsych/img/24_big.jpg","f","test","up","0","image-keyboard-response","60","308703","0.0-12.0-2.6","congruent","2"
"12296.800000190735","jsPsych/img/28_big.jpg","j","test","up","0","image-keyboard-response","63","324119","0.0-12.0-2.7","congruent","2"
"4688.799999952316","jsPsych/img/03_big.jpg","f","test","down","0","image-keyboard-response","66","331422","0.0-12.0-2.8","congruent","2"
"8791.599999904633","jsPsych/img/22_big.jpg","j","test","up","0","image-keyboard-response","69","342832","0.0-12.0-2.9","incongruent","2"
"6305.200000047684","jsPsych/img/11_big.jpg","j","test","down","0","image-keyboard-response","72","352001","0.0-12.0-2.10","congruent","2"
"12200.599999904633","jsPsych/img/32_big.jpg","f","test","up","0","image-keyboard-response","75","367065","0.0-12.0-2.11","congruent","2"
"11354.100000143051","jsPsych/img/13_big.jpg","j","test","down","0","image-keyboard-response","78","381782","0.0-12.0-2.12","incongruent","2"
"13814.900000095367","jsPsych/img/14_big.jpg","j","test","down","0","image-keyboard-response","81","398959","0.0-12.0-2.13","congruent","2"
"8836.200000047684","jsPsych/img/18_big.jpg","j","test","down","0","image-keyboard-response","84","410424","0.0-12.0-2.14","congruent","2"
"4851.099999904633","jsPsych/img/29_big.jpg","f","test","up","0","image-keyboard-response","87","418893","0.0-12.0-2.15","incongruent","2"
"4881.900000095367","jsPsych/img/30_big.jpg","j","test","up","0","image-keyboard-response","90","426654","0.0-12.0-2.16","incongruent","2"
"6411.700000047684","jsPsych/img/35_big.jpg","j","test","up","0","image-keyboard-response","93","437187","0.0-12.0-2.17","congruent","2"
"5012.599999904633","jsPsych/img/15_big.jpg","f","test","down","0","image-keyboard-response","96","445324","0.0-12.0-2.18","incongruent","2"
"7878","jsPsych/img/10_big.jpg","f","test","down","0","image-keyboard-response","99","456321","0.0-12.0-2.19","congruent","2"
"4696.599999904633","jsPsych/img/26_big.jpg","f","test","up","0","image-keyboard-response","102","464635","0.0-12.0-2.20","incongruent","2"
"19348.60000014305","jsPsych/img/07_big.jpg","f","test","down","0","image-keyboard-response","105","487112","0.0-12.0-2.21","incongruent","2"
"3687.399999856949","jsPsych/img/25_big.jpg","f","test","up","0","image-keyboard-response","108","494421","0.0-12.0-2.22","congruent","2"
"4402.700000047684","jsPsych/img/01_big.jpg","j","test","down","0","image-keyboard-response","111","501936","0.0-12.0-2.23","incongruent","2"
"3438.7000000476837","jsPsych/img/19_big.jpg","j","test","up","0","image-keyboard-response","114","508013","0.0-12.0-2.24","incongruent","2"
"2361.2000000476837","jsPsych/img/34_big.jpg","j","test","up","0","image-keyboard-response","117","514500","0.0-12.0-2.25","incongruent","2"
"5297.099999904633","jsPsych/img/36_big.jpg","j","test","up","0","image-keyboard-response","120","522910","0.0-12.0-2.26","incongruent","2"
"2964.2999999523163","jsPsych/img/02_big.jpg","j","test","down","0","image-keyboard-response","123","528743","0.0-12.0-2.27","congruent","2"
"3248.2999999523163","jsPsych/img/27_big.jpg","j","test","up","0","image-keyboard-response","126","535110","0.0-12.0-2.28","congruent","2"
"9657.099999904633","jsPsych/img/16_big.jpg","f","test","down","0","image-keyboard-response","129","548882","0.0-12.0-2.29","incongruent","2"
"2495.2999999523163","jsPsych/img/06_big.jpg","j","test","down","0","image-keyboard-response","132","554003","0.0-12.0-2.30","congruent","2"
"8285.600000143051","jsPsych/img/04_big.jpg","j","test","down","0","image-keyboard-response","135","565915","0.0-12.0-2.31","incongruent","2"
"1345","jsPsych/img/33_big.jpg","j","test","up","0","image-keyboard-response","42","147153","0.0-12.0-2.0","congruent","2"
"1059","jsPsych/img/13_big.jpg","j","test","down","0","image-keyboard-response","45","151569","0.0-12.0-2.1","incongruent","2"
"1862","jsPsych/img/32_big.jpg","f","test","up","0","image-keyboard-response","48","157038","0.0-12.0-2.2","congruent","2"
"416","jsPsych/img/11_big.jpg","j","test","down","0","image-keyboard-response","51","160781","0.0-12.0-2.3","incongruent","2"
"1383","jsPsych/img/09_big.jpg","j","test","down","0","image-keyboard-response","54","165267","0.0-12.0-2.4","congruent","2"
"550.9999999999709","jsPsych/img/34_big.jpg","j","test","up","0","image-keyboard-response","57","168922","0.0-12.0-2.5","congruent","2"
"521.0000000000291","jsPsych/img/01_big.jpg","j","test","down","0","image-keyboard-response","60","172548","0.0-12.0-2.6","incongruent","2"
"1340","jsPsych/img/16_big.jpg","j","test","down","0","image-keyboard-response","63","177994","0.0-12.0-2.7","incongruent","2"
"524","jsPsych/img/29_big.jpg","j","test","up","0","image-keyboard-response","66","181124","0.0-12.0-2.8","incongruent","2"
"149.9999999999709","jsPsych/img/27_big.jpg","j","test","up","0","image-keyboard-response","69","183878","0.0-12.0-2.9","congruent","2"
"202","jsPsych/img/03_big.jpg","j","test","down","0","image-keyboard-response","72","187938","0.0-12.0-2.10","congruent","2"
"1399","jsPsych/img/07_big.jpg","j","test","down","0","image-keyboard-response","75","193441","0.0-12.0-2.11","incongruent","2"
"319.0000000000291","jsPsych/img/21_big.jpg","j","test","up","0","image-keyboard-response","78","196615","0.0-12.0-2.12","congruent","2"
"411","jsPsych/img/10_big.jpg","f","test","down","0","image-keyboard-response","81","200130","0.0-12.0-2.13","incongruent","2"
"474","jsPsych/img/24_big.jpg","f","test","up","0","image-keyboard-response","84","203961","0.0-12.0-2.14","congruent","2"
"534.9999999999709","jsPsych/img/26_big.jpg","f","test","up","0","image-keyboard-response","87","208353","0.0-12.0-2.15","incongruent","2"
"664","jsPsych/img/15_big.jpg","j","test","down","0","image-keyboard-response","90","212122","0.0-12.0-2.16","incongruent","2"
"266","jsPsych/img/14_big.jpg","j","test","down","0","image-keyboard-response","93","215994","0.0-12.0-2.17","congruent","2"
"437","jsPsych/img/25_big.jpg","f","test","up","0","image-keyboard-response","96","219037","0.0-12.0-2.18","incongruent","2"
"1211","jsPsych/img/18_big.jpg","j","test","down","0","image-keyboard-response","99","222852","0.0-12.0-2.19","congruent","2"
"343","jsPsych/img/04_big.jpg","f","test","down","0","image-keyboard-response","102","226802","0.0-12.0-2.20","incongruent","2"
"425.9999999999709","jsPsych/img/28_big.jpg","j","test","up","0","image-keyboard-response","105","230084","0.0-12.0-2.21","incongruent","2"
"2428","jsPsych/img/30_big.jpg","j","test","up","0","image-keyboard-response","108","236617","0.0-12.0-2.22","congruent","2"
"62","jsPsych/img/05_big.jpg","f","test","down","0","image-keyboard-response","111","240534","0.0-12.0-2.23","congruent","2"
"4178","jsPsych/img/02_big.jpg","j","test","down","0","image-keyboard-response","114","248816","0.0-12.0-2.24","incongruent","2"
"218.0000000000291","jsPsych/img/22_big.jpg","f","test","up","0","image-keyboard-response","117","251891","0.0-12.0-2.25","incongruent","2"
"1010.9999999999709","jsPsych/img/23_big.jpg","f","test","up","0","image-keyboard-response","120","256257","0.0-12.0-2.26","congruent","2"
"63","jsPsych/img/19_big.jpg","j","test","up","0","image-keyboard-response","123","259675","0.0-12.0-2.27","congruent","2"
"1659","jsPsych/img/12_big.jpg","f","test","down","0","image-keyboard-response","126","264439","0.0-12.0-2.28","congruent","2"
"3053","jsPsych/img/06_big.jpg","j","test","down","0","image-keyboard-response","129","271348","0.0-12.0-2.29","incongruent","2"
"243","jsPsych/img/36_big.jpg","f","test","up","0","image-keyboard-response","132","274695","0.0-12.0-2.30","incongruent","2"
"1724.0000000000582","jsPsych/img/35_big.jpg","j","test","up","0","image-keyboard-response","135","279275","0.0-12.0-2.31","congruent","2"
"613.9999999999854","jsPsych/img/01_big.jpg","j","test","down","0","image-keyboard-response","42","122106","0.0-12.0-2.0","incongruent","2"
"951.0000000000146","jsPsych/img/28_big.jpg","f","test","up","0","image-keyboard-response","45","126668","0.0-12.0-2.1","incongruent","2"
"739","jsPsych/img/33_big.jpg","j","test","up","0","image-keyboard-response","48","130271","0.0-12.0-2.2","incongruent","2"
"440.9999999999709","jsPsych/img/24_big.jpg","f","test","up","0","image-keyboard-response","51","134824","0.0-12.0-2.3","incongruent","2"
"262","jsPsych/img/09_big.jpg","f","test","down","0","image-keyboard-response","54","138195","0.0-12.0-2.4","congruent","2"
"401","jsPsych/img/07_big.jpg","f","test","down","0","image-keyboard-response","57","141956","0.0-12.0-2.5","congruent","2"
"7","jsPsych/img/27_big.jpg","f","test","up","0","image-keyboard-response","60","144574","0.0-12.0-2.6","incongruent","2"
"78","jsPsych/img/06_big.jpg","j","test","down","0","image-keyboard-response","63","148010","0.0-12.0-2.7","incongruent","2"
"1204","jsPsych/img/14_big.jpg","f","test","down","0","image-keyboard-response","66","152326","0.0-12.0-2.8","incongruent","2"
"637.9999999999709","jsPsych/img/02_big.jpg","j","test","down","0","image-keyboard-response","69","155825","0.0-12.0-2.9","incongruent","2"
"97","jsPsych/img/12_big.jpg","f","test","down","0","image-keyboard-response","72","158530","0.0-12.0-2.10","congruent","2"
"217","jsPsych/img/19_big.jpg","f","test","up","0","image-keyboard-response","75","162859","0.0-12.0-2.11","congruent","2"
"681","jsPsych/img/36_big.jpg","j","test","up","0","image-keyboard-response","78","167652","0.0-12.0-2.12","incongruent","2"
"284","jsPsych/img/16_big.jpg","j","test","down","0","image-keyboard-response","81","171297","0.0-12.0-2.13","incongruent","2"
"349","jsPsych/img/29_big.jpg","f","test","up","0","image-keyboard-response","84","175506","0.0-12.0-2.14","incongruent","2"
"243","jsPsych/img/25_big.jpg","j","test","up","0","image-keyboard-response","87","178358","0.0-12.0-2.15","incongruent","2"
"166","jsPsych/img/18_big.jpg","f","test","down","0","image-keyboard-response","90","181134","0.0-12.0-2.16","incongruent","2"
"496","jsPsych/img/13_big.jpg","f","test","down","0","image-keyboard-response","93","185241","0.0-12.0-2.17","congruent","2"
"308","jsPsych/img/30_big.jpg","f","test","up","0","image-keyboard-response","96","188158","0.0-12.0-2.18","congruent","2"
"337","jsPsych/img/11_big.jpg","f","test","down","0","image-keyboard-response","99","191104","0.0-12.0-2.19","congruent","2"
"339","jsPsych/img/26_big.jpg","f","test","up","0","image-keyboard-response","102","194804","0.0-12.0-2.20","incongruent","2"
"5.000000000029104","jsPsych/img/21_big.jpg","f","test","up","0","image-keyboard-response","105","198670","0.0-12.0-2.21","incongruent","2"
"53","jsPsych/img/22_big.jpg","j","test","up","0","image-keyboard-response","108","202083","0.0-12.0-2.22","congruent","2"
"91.0000000000291","jsPsych/img/03_big.jpg","j","test","down","0","image-keyboard-response","111","206039","0.0-12.0-2.23","congruent","2"
"60","jsPsych/img/23_big.jpg","j","test","up","0","image-keyboard-response","114","209962","0.0-12.0-2.24","incongruent","2"
"276","jsPsych/img/34_big.jpg","f","test","up","0","image-keyboard-response","117","213599","0.0-12.0-2.25","congruent","2"
"542","jsPsych/img/10_big.jpg","f","test","down","0","image-keyboard-response","120","217999","0.0-12.0-2.26","congruent","2"
"565","jsPsych/img/15_big.jpg","f","test","down","0","image-keyboard-response","123","222672","0.0-12.0-2.27","incongruent","2"
"180","jsPsych/img/05_big.jpg","j","test","down","0","image-keyboard-response","126","225964","0.0-12.0-2.28","incongruent","2"
"287","jsPsych/img/32_big.jpg","f","test","up","0","image-keyboard-response","129","230109","0.0-12.0-2.29","congruent","2"
"73","jsPsych/img/04_big.jpg","j","test","down","0","image-keyboard-response","132","234290","0.0-12.0-2.30","congruent","2"
"557.9999999999709","jsPsych/img/35_big.jpg","f","test","up","0","image-keyboard-response","135","238210","0.0-12.0-2.31","congruent","2"
"2955","jsPsych/img/16_big.jpg","j","test","down","0","image-keyboard-response","42","227808","0.0-12.0-2.0","incongruent","2"
"2345","jsPsych/img/14_big.jpg","j","test","down","0","image-keyboard-response","45","234016","0.0-12.0-2.1","incongruent","2"
"4495","jsPsych/img/21_big.jpg","f","test","up","0","image-keyboard-response","48","241131","0.0-12.0-2.2","congruent","2"
"2442.999999999971","jsPsych/img/32_big.jpg","j","test","up","0","image-keyboard-response","51","247432","0.0-12.0-2.3","incongruent","2"
"2341.000000000029","jsPsych/img/26_big.jpg","f","test","up","0","image-keyboard-response","54","253632","0.0-12.0-2.4","incongruent","2"
"1532.0000000000582","jsPsych/img/01_big.jpg","j","test","down","0","image-keyboard-response","57","258027","0.0-12.0-2.5","incongruent","2"
"2003","jsPsych/img/04_big.jpg","j","test","down","0","image-keyboard-response","60","263391","0.0-12.0-2.6","congruent","2"
"1352","jsPsych/img/25_big.jpg","j","test","up","0","image-keyboard-response","63","268108","0.0-12.0-2.7","incongruent","2"
"748","jsPsych/img/05_big.jpg","f","test","down","0","image-keyboard-response","66","271968","0.0-12.0-2.8","incongruent","2"
"988.9999999999418","jsPsych/img/19_big.jpg","j","test","up","0","image-keyboard-response","69","276565","0.0-12.0-2.9","incongruent","2"
"1454","jsPsych/img/34_big.jpg","f","test","up","0","image-keyboard-response","72","281876","0.0-12.0-2.10","incongruent","2"
"1513.0000000000582","jsPsych/img/02_big.jpg","j","test","down","0","image-keyboard-response","75","286749","0.0-12.0-2.11","congruent","2"
"1139","jsPsych/img/30_big.jpg","j","test","up","0","image-keyboard-response","78","291746","0.0-12.0-2.12","congruent","2"
"1065","jsPsych/img/15_big.jpg","f","test","down","0","image-keyboard-response","81","295420","0.0-12.0-2.13","incongruent","2"
"1170","jsPsych/img/36_big.jpg","j","test","up","0","image-keyboard-response","84","300200","0.0-12.0-2.14","incongruent","2"
"1198","jsPsych/img/35_big.jpg","j","test","up","0","image-keyboard-response","87","304758","0.0-12.0-2.15","incongruent","2"
"828","jsPsych/img/06_big.jpg","f","test","down","0","image-keyboard-response","90","309447","0.0-12.0-2.16","incongruent","2"
"1276","jsPsych/img/24_big.jpg","j","test","up","0","image-keyboard-response","93","314830","0.0-12.0-2.17","congruent","2"
"1586","jsPsych/img/10_big.jpg","f","test","down","0","image-keyboard-response","96","320524","0.0-12.0-2.18","congruent","2"
"1364.9999999999418","jsPsych/img/13_big.jpg","f","test","down","0","image-keyboard-response","99","325001","0.0-12.0-2.19","incongruent","2"
"926.0000000000582","jsPsych/img/11_big.jpg","j","test","down","0","image-keyboard-response","102","329291","0.0-12.0-2.20","congruent","2"
"861","jsPsych/img/09_big.jpg","j","test","down","0","image-keyboard-response","105","334011","0.0-12.0-2.21","incongruent","2"
"473","jsPsych/img/33_big.jpg","f","test","up","0","image-keyboard-response","108","337095","0.0-12.0-2.22","congruent","2"
"808","jsPsych/img/03_big.jpg","f","test","down","0","image-keyboard-response","111","340762","0.0-12.0-2.23","incongruent","2"
"879","jsPsych/img/18_big.jpg","f","test","down","0","image-keyboard-response","114","345002","0.0-12.0-2.24","incongruent","2"
"356","jsPsych/img/07_big.jpg","j","test","down","0","image-keyboard-response","117","348716","0.0-12.0-2.25","congruent","2"
"308","jsPsych/img/29_big.jpg","f","test","up","0","image-keyboard-response","120","353135","0.0-12.0-2.26","incongruent","2"
"835","jsPsych/img/12_big.jpg","j","test","down","0","image-keyboard-response","123","357331","0.0-12.0-2.27","incongruent","2"
"810","jsPsych/img/28_big.jpg","j","test","up","0","image-keyboard-response","126","361753","0.0-12.0-2.28","incongruent","2"
"290","jsPsych/img/23_big.jpg","f","test","up","0","image-keyboard-response","129","366154","0.0-12.0-2.29","congruent","2"
"421","jsPsych/img/27_big.jpg","j","test","up","0","image-keyboard-response","132","370687","0.0-12.0-2.30","congruent","2"
"501","jsPsych/img/22_big.jpg","j","test","up","0","image-keyboard-response","135","374047","0.0-12.0-2.31","incongruent","2"
