"rt","stimulus","response","task","condition","random","trial_type","trial_index","time_elapsed","internal_node_id","match","hp_test"
"5054.899999991059","jsPsych/img/32_big.jpg","f","test","up","0","image-keyboard-response","42","160245","0.0-12.0-2.0","congruent","2"
"1530.199999988079","jsPsych/img/19_big.jpg","j","test","up","0","image-keyboard-response","45","164650","0.0-12.0-2.1","incongruent","2"
"4413.20000000298","jsPsych/img/12_big.jpg","j","test","down","0","image-keyboard-response","48","172443","0.0-12.0-2.2","incongruent","2"
"1282.7000000029802","jsPsych/img/02_big.jpg","f","test","down","0","image-keyboard-response","51","176598","0.0-12.0-2.3","congruent","2"
"1092.4000000059605","jsPsych/img/21_big.jpg","j","test","up","0","image-keyboard-response","54","181316","0.0-12.0-2.4","incongruent","2"
"2617.199999988079","jsPsych/img/04_big.jpg","f","test","down","0","image-keyboard-response","57","187050","0.0-12.0-2.5","congruent","2"
"4180.20000000298","jsPsych/img/25_big.jpg","f","test","up","0","image-keyboard-response","60","194604","0.0-12.0-2.6","incongruent","2"
"1422","jsPsych/img/34_big.jpg","j","test","up","0","image-keyboard-response","63","200157","0.0-12.0-2.7","congruent","2"
"1393","jsPsych/img/24_big.jpg","f","test","up","0","image-keyboard-response","66","205421","0.0-12.0-2.8","congruent","2"
"2511.800000011921","jsPsych/img/27_big.jpg","f","test","up","0","image-keyboard-response","69","212061","0.0-12.0-2.9","congruent","2"
"2413.2999999970198","jsPsych/img/35_big.jpg","j","test","up","0","image-keyboard-response","72","218341","0.0-12.0-2.10","incongruent","2"
"1342.300000011921","jsPsych/img/07_big.jpg","f","test","down","0","image-keyboard-response","75","223550","0.0-12.0-2.11","congruent","2"
"1080.5","jsPsych/img/16_big.jpg","f","test","down","0","image-keyboard-response","78","227500","0.0-12.0-2.12","congruent","2"
"937.9000000059605","jsPsych/img/03_big.jpg","f","test","down","0","image-keyboard-response","81","232050","0.0-12.0-2.13","incongruent","2"
"2593.2000000029802","jsPsych/img/11_big.jpg","j","test","down","0","image-keyboard-response","84","237758","0.0-12.0-2.14","congruent","2"
"1416.8999999910593","jsPsych/img/13_big.jpg","f","test","down","0","image-keyboard-response","87","241805","0.0-12.0-2.15","congruent","2"
"1643.7999999970198","jsPsych/img/15_big.jpg","f","test","down","0","image-keyboard-response","90","246812","0.0-12.0-2.16","congruent","2"
"1074.7999999970198","jsPsych/img/18_big.jpg","f","test","down","0","image-keyboard-response","93","251250","0.0-12.0-2.17","congruent","2"
"1329.4000000059605","jsPsych/img/36_big.jpg","f","test","up","0","image-keyboard-response","96","255205","0.0-12.0-2.18","congruent","2"
"1225.7999999970198","jsPsych/img/14_big.jpg","j","test","down","0","image-keyboard-response","99","260556","0.0-12.0-2.19","congruent","2"
"4165.5","jsPsych/img/33_big.jpg","j","test","up","0","image-keyboard-response","102","267583","0.0-12.0-2.20","incongruent","2"
"1058.6000000089407","jsPsych/img/01_big.jpg","j","test","down","0","image-keyboard-response","105","272510","0.0-12.0-2.21","incongruent","2"
"1020","jsPsych/img/28_big.jpg","f","test","up","0","image-keyboard-response","108","277148","0.0-12.0-2.22","incongruent","2"
"993.5999999940395","jsPsych/img/29_big.jpg","f","test","up","0","image-keyboard-response","111","281756","0.0-12.0-2.23","incongruent","2"
"1285.5999999940395","jsPsych/img/06_big.jpg","j","test","down","0","image-keyboard-response","114","286664","0.0-12.0-2.24","incongruent","2"
"941.9000000059605","jsPsych/img/09_big.jpg","f","test","down","0","image-keyboard-response","117","290727","0.0-12.0-2.25","incongruent","2"
"728.6999999880791","jsPsych/img/05_big.jpg","j","test","down","0","image-keyboard-response","120","295078","0.0-12.0-2.26","incongruent","2"
"939.4000000059605","jsPsych/img/26_big.jpg","j","test","up","0","image-keyboard-response","123","299141","0.0-12.0-2.27","congruent","2"
"1081.0999999940395","jsPsych/img/22_big.jpg","j","test","up","0","image-keyboard-response","126","303103","0.0-12.0-2.28","congruent","2"
"906.5","jsPsych/img/23_big.jpg","j","test","up","0","image-keyboard-response","129","307631","0.0-12.0-2.29","congruent","2"
"1107.3999999910593","jsPsych/img/30_big.jpg","f","test","up","0","image-keyboard-response","132","311350","0.0-12.0-2.30","incongruent","2"
"2369","jsPsych/img/10_big.jpg","j","test","down","0","image-keyboard-response","135","316598","0.0-12.0-2.31","congruent","2"
"4183.79999999702","jsPsych/img/35_big.jpg","f","test","up","0","image-keyboard-response","42","272400","0.0-12.0-2.0","incongruent","2"
"1895.1999999955297","jsPsych/img/04_big.jpg","j","test","down","0","image-keyboard-response","45","277907","0.0-12.0-2.1","incongruent","2"
"2354.5999999940395","jsPsych/img/01_big.jpg","f","test","down","0","image-keyboard-response","48","284377","0.0-12.0-2.2","incongruent","2"
"1927.8999999985099","jsPsych/img/16_big.jpg","f","test","down","0","image-keyboard-response","51","289915","0.0-12.0-2.3","incongruent","2"
"2108.60000000149","jsPsych/img/02_big.jpg","j","test","down","0","image-keyboard-response","54","295631","0.0-12.0-2.4","incongruent","2"
"1875.3000000044703","jsPsych/img/12_big.jpg","j","test","down","0","image-keyboard-response","57","301620","0.0-12.0-2.5","incongruent","2"
"2165.7999999970198","jsPsych/img/26_big.jpg","f","test","up","0","image-keyboard-response","60","307899","0.0-12.0-2.6","incongruent","2"
"1628.3999999985099","jsPsych/img/30_big.jpg","f","test","up","0","image-keyboard-response","63","313643","0.0-12.0-2.7","incongruent","2"
"1573.6000000014901","jsPsych/img/09_big.jpg","j","test","down","0","image-keyboard-response","66","318827","0.0-12.0-2.8","incongruent","2"
"1057.7000000029802","jsPsych/img/05_big.jpg","f","test","down","0","image-keyboard-response","69","323007","0.0-12.0-2.9","congruent","2"
"1543.6999999955297","jsPsych/img/14_big.jpg","j","test","down","0","image-keyboard-response","72","327164","0.0-12.0-2.10","congruent","2"
"1884.8999999985099","jsPsych/img/22_big.jpg","f","test","up","0","image-keyboard-response","75","331906","0.0-12.0-2.11","incongruent","2"
"2180.5","jsPsych/img/25_big.jpg","j","test","up","0","image-keyboard-response","78","336947","0.0-12.0-2.12","incongruent","2"
"1332.7999999970198","jsPsych/img/33_big.jpg","f","test","up","0","image-keyboard-response","81","341891","0.0-12.0-2.13","incongruent","2"
"1474.8999999985099","jsPsych/img/06_big.jpg","f","test","down","0","image-keyboard-response","84","346727","0.0-12.0-2.14","congruent","2"
"1403.1000000014901","jsPsych/img/19_big.jpg","j","test","up","0","image-keyboard-response","87","351242","0.0-12.0-2.15","incongruent","2"
"2584","jsPsych/img/23_big.jpg","f","test","up","0","image-keyboard-response","90","357686","0.0-12.0-2.16","congruent","2"
"1969.7999999970198","jsPsych/img/27_big.jpg","j","test","up","0","image-keyboard-response","93","363268","0.0-12.0-2.17","congruent","2"
"1358.2999999970198","jsPsych/img/13_big.jpg","f","test","down","0","image-keyboard-response","96","368237","0.0-12.0-2.18","congruent","2"
"1624.8999999985099","jsPsych/img/34_big.jpg","j","test","up","0","image-keyboard-response","99","372972","0.0-12.0-2.19","incongruent","2"
"1328.3000000044703","jsPsych/img/07_big.jpg","j","test","down","0","image-keyboard-response","102","377160","0.0-12.0-2.20","incongruent","2"
"1260.2000000029802","jsPsych/img/28_big.jpg","f","test","up","0","image-keyboard-response","105","381531","0.0-12.0-2.21","incongruent","2"
"2137.89999999851","jsPsych/img/10_big.jpg","f","test","down","0","image-keyboard-response","108","386530","0.0-12.0-2.22","congruent","2"
"3034","jsPsych/img/15_big.jpg","f","test","down","0","image-keyboard-response","111","393175","0.0-12.0-2.23","congruent","2"
"1249.7999999970198","jsPsych/img/18_big.jpg","j","test","down","0","image-keyboard-response","114","397785","0.0-12.0-2.24","congruent","2"
"1235.6999999955297","jsPsych/img/03_big.jpg","f","test","down","0","image-keyboard-response","117","402635","0.0-12.0-2.25","incongruent","2"
"1292","jsPsych/img/36_big.jpg","j","test","up","0","image-keyboard-response","120","408040","0.0-12.0-2.26","congruent","2"
"2492.3000000044703","jsPsych/img/11_big.jpg","j","test","down","0","image-keyboard-response","123","413144","0.0-12.0-2.27","incongruent","2"
"1819.3999999985099","jsPsych/img/24_big.jpg","j","test","up","0","image-keyboard-response","126","418828","0.0-12.0-2.28","congruent","2"
"1534.6999999955297","jsPsych/img/32_big.jpg","j","test","up","0","image-keyboard-response","129","424222","0.0-12.0-2.29","incongruent","2"
"1562.3999999985099","jsPsych/img/21_big.jpg","f","test","up","0","image-keyboard-response","132","429147","0.0-12.0-2.30","incongruent","2"
"2012.7999999970198","jsPsych/img/29_big.jpg","j","test","up","0","image-keyboard-response","135","434019","0.0-12.0-2.31","congruent","2"
"1319.9000000953674","jsPsych/img/15_big.jpg","f","test","down","0","image-keyboard-response","42","190486","0.0-12.0-2.0","incongruent","2"
"3009.5999999046326","jsPsych/img/23_big.jpg","j","test","up","0","image-keyboard-response","45","196105","0.0-12.0-2.1","incongruent","2"
"1344.5","jsPsych/img/12_big.jpg","f","test","down","0","image-keyboard-response","48","200306","0.0-12.0-2.2","incongruent","2"
"1835.2000000476837","jsPsych/img/03_big.jpg","f","test","down","0","image-keyboard-response","51","205000","0.0-12.0-2.3","congruent","2"
"3554.2000000476837","jsPsych/img/06_big.jpg","j","test","down","0","image-keyboard-response","54","211662","0.0-12.0-2.4","incongruent","2"
"2114.9000000953674","jsPsych/img/22_big.jpg","j","test","up","0","image-keyboard-response","57","217386","0.0-12.0-2.5","congruent","2"
"2645.2000000476837","jsPsych/img/26_big.jpg","j","test","up","0","image-keyboard-response","60","223389","0.0-12.0-2.6","congruent","2"
"1883.1000001430511","jsPsych/img/05_big.jpg","f","test","down","0","image-keyboard-response","63","229383","0.0-12.0-2.7","congruent","2"
"1725.1000001430511","jsPsych/img/14_big.jpg","f","test","down","0","image-keyboard-response","66","233717","0.0-12.0-2.8","incongruent","2"
"2415","jsPsych/img/18_big.jpg","f","test","down","0","image-keyboard-response","69","239743","0.0-12.0-2.9","congruent","2"
"3453.0999999046326","jsPsych/img/24_big.jpg","f","test","up","0","image-keyboard-response","72","245803","0.0-12.0-2.10","congruent","2"
"1709.2000000476837","jsPsych/img/28_big.jpg","j","test","up","0","image-keyboard-response","75","250373","0.0-12.0-2.11","incongruent","2"
"1398.5","jsPsych/img/32_big.jpg","j","test","up","0","image-keyboard-response","78","254386","0.0-12.0-2.12","incongruent","2"
"2538","jsPsych/img/25_big.jpg","f","test","up","0","image-keyboard-response","81","261035","0.0-12.0-2.13","incongruent","2"
"1309.5","jsPsych/img/34_big.jpg","f","test","up","0","image-keyboard-response","84","265954","0.0-12.0-2.14","incongruent","2"
"2469.2999999523163","jsPsych/img/29_big.jpg","j","test","up","0","image-keyboard-response","87","271281","0.0-12.0-2.15","incongruent","2"
"1722.0999999046326","jsPsych/img/27_big.jpg","j","test","up","0","image-keyboard-response","90","276616","0.0-12.0-2.16","congruent","2"
"3184.0999999046326","jsPsych/img/01_big.jpg","j","test","down","0","image-keyboard-response","93","283408","0.0-12.0-2.17","incongruent","2"
"2175.9000000953674","jsPsych/img/09_big.jpg","j","test","down","0","image-keyboard-response","96","288190","0.0-12.0-2.18","incongruent","2"
"2123.600000143051","jsPsych/img/30_big.jpg","f","test","up","0","image-keyboard-response","99","293422","0.0-12.0-2.19","incongruent","2"
"1331.5999999046326","jsPsych/img/02_big.jpg","f","test","down","0","image-keyboard-response","102","298613","0.0-12.0-2.20","congruent","2"
"1088.2999999523163","jsPsych/img/16_big.jpg","j","test","down","0","image-keyboard-response","105","303310","0.0-12.0-2.21","congruent","2"
"2582.5999999046326","jsPsych/img/33_big.jpg","j","test","up","0","image-keyboard-response","108","309498","0.0-12.0-2.22","incongruent","2"
"2116.7999999523163","jsPsych/img/04_big.jpg","j","test","down","0","image-keyboard-response","111","314974","0.0-12.0-2.23","congruent","2"
"1637.2999999523163","jsPsych/img/10_big.jpg","j","test","down","0","image-keyboard-response","114","319719","0.0-12.0-2.24","congruent","2"
"1266.3999998569489","jsPsych/img/11_big.jpg","j","test","down","0","image-keyboard-response","117","325094","0.0-12.0-2.25","congruent","2"
"4150.800000190735","jsPsych/img/36_big.jpg","j","test","up","0","image-keyboard-response","120","333355","0.0-12.0-2.26","incongruent","2"
"3568.2000000476837","jsPsych/img/19_big.jpg","f","test","up","0","image-keyboard-response","123","339530","0.0-12.0-2.27","congruent","2"
"1526.5999999046326","jsPsych/img/21_big.jpg","f","test","up","0","image-keyboard-response","126","344171","0.0-12.0-2.28","congruent","2"
"1611.0999999046326","jsPsych/img/13_big.jpg","f","test","down","0","image-keyboard-response","129","348895","0.0-12.0-2.29","congruent","2"
"1292.2000000476837","jsPsych/img/07_big.jpg","f","test","down","0","image-keyboard-response","132","353546","0.0-12.0-2.30","incongruent","2"
"3135.4000000953674","jsPsych/img/35_big.jpg","j","test","up","0","image-keyboard-response","135","360042","0.0-12.0-2.31","congruent","2"
"3491.4000000000233","jsPsych/img/23_big.jpg","f","test","up","0","image-keyboard-response","42","217895","0.0-12.0-2.0","incongruent","2"
"4208.599999999977","jsPsych/img/06_big.jpg","j","test","down","0","image-keyboard-response","45","225222","0.0-12.0-2.1","incongruent","2"
"1929.7000000000698","jsPsych/img/33_big.jpg","f","test","up","0","image-keyboard-response","48","230758","0.0-12.0-2.2","incongruent","2"
"4523","jsPsych/img/15_big.jpg","f","test","down","0","image-keyboard-response","51","238646","0.0-12.0-2.3","incongruent","2"
"6444.100000000093","jsPsych/img/19_big.jpg","j","test","up","0","image-keyboard-response","54","249205","0.0-12.0-2.4","congruent","2"
"2025.4000000000233","jsPsych/img/12_big.jpg","f","test","down","0","image-keyboard-response","57","253851","0.0-12.0-2.5","incongruent","2"
"3935.0999999999767","jsPsych/img/25_big.jpg","j","test","up","0","image-keyboard-response","60","260646","0.0-12.0-2.6","congruent","2"
"2182","jsPsych/img/05_big.jpg","f","test","down","0","image-keyboard-response","63","265700","0.0-12.0-2.7","incongruent","2"
"4554.800000000047","jsPsych/img/02_big.jpg","j","test","down","0","image-keyboard-response","66","272865","0.0-12.0-2.8","incongruent","2"
"2063","jsPsych/img/26_big.jpg","j","test","up","0","image-keyboard-response","69","277800","0.0-12.0-2.9","congruent","2"
"1830.3999999999069","jsPsych/img/22_big.jpg","j","test","up","0","image-keyboard-response","72","283499","0.0-12.0-2.10","incongruent","2"
"2143.5999999999767","jsPsych/img/35_big.jpg","f","test","up","0","image-keyboard-response","75","289255","0.0-12.0-2.11","incongruent","2"
"5554.699999999953","jsPsych/img/29_big.jpg","j","test","up","0","image-keyboard-response","78","297923","0.0-12.0-2.12","incongruent","2"
"7162.099999999977","jsPsych/img/24_big.jpg","j","test","up","0","image-keyboard-response","81","308704","0.0-12.0-2.13","congruent","2"
"3938.4000000000233","jsPsych/img/36_big.jpg","f","test","up","0","image-keyboard-response","84","315757","0.0-12.0-2.14","congruent","2"
"5191.300000000047","jsPsych/img/11_big.jpg","j","test","down","0","image-keyboard-response","87","323559","0.0-12.0-2.15","congruent","2"
"2657.20000000007","jsPsych/img/32_big.jpg","j","test","up","0","image-keyboard-response","90","329580","0.0-12.0-2.16","congruent","2"
"3873.79999999993","jsPsych/img/01_big.jpg","j","test","down","0","image-keyboard-response","93","337564","0.0-12.0-2.17","incongruent","2"
"5054.099999999977","jsPsych/img/21_big.jpg","j","test","up","0","image-keyboard-response","96","346484","0.0-12.0-2.18","congruent","2"
"4783.599999999977","jsPsych/img/16_big.jpg","f","test","down","0","image-keyboard-response","99","354378","0.0-12.0-2.19","congruent","2"
"1549.7999999999302","jsPsych/img/30_big.jpg","j","test","up","0","image-keyboard-response","102","359299","0.0-12.0-2.20","congruent","2"
"116.60000000009313","jsPsych/img/10_big.jpg","f","test","down","0","image-keyboard-response","105","363027","0.0-12.0-2.21","incongruent","2"
"315.5","jsPsych/img/28_big.jpg","j","test","up","0","image-keyboard-response","108","367462","0.0-12.0-2.22","incongruent","2"
"42.10000000009313","jsPsych/img/14_big.jpg","j","test","down","0","image-keyboard-response","111","371618","0.0-12.0-2.23","congruent","2"
"902.5","jsPsych/img/03_big.jpg","f","test","down","0","image-keyboard-response","114","376127","0.0-12.0-2.24","incongruent","2"
"515","jsPsych/img/04_big.jpg","j","test","down","0","image-keyboard-response","117","380500","0.0-12.0-2.25","congruent","2"
"3964.600000000093","jsPsych/img/18_big.jpg","f","test","down","0","image-keyboard-response","120","388570","0.0-12.0-2.26","congruent","2"
"2029","jsPsych/img/34_big.jpg","f","test","up","0","image-keyboard-response","123","393464","0.0-12.0-2.27","congruent","2"
"4402.800000000047","jsPsych/img/07_big.jpg","f","test","down","0","image-keyboard-response","126","400979","0.0-12.0-2.28","congruent","2"
"2582.1999999999534","jsPsych/img/09_big.jpg","f","test","down","0","image-keyboard-response","129","406426","0.0-12.0-2.29","congruent","2"
"1372.8000000000466","jsPsych/img/27_big.jpg","j","test","up","0","image-keyboard-response","132","411910","0.0-12.0-2.30","incongruent","2"
"2993.0999999999767","jsPsych/img/13_big.jpg","f","test","down","0","image-keyboard-response","135","418014","0.0-12.0-2.31","congruent","2"
"4494.5","jsPsych/img/34_big.jpg","j","test","up","0","image-keyboard-response","42","256640","0.0-12.0-2.0","congruent","2"
"10450.800000011921","jsPsych/img/13_big.jpg","j","test","down","0","image-keyboard-response","45","270959","0.0-12.0-2.1","incongruent","2"
"14298.699999988079","jsPsych/img/06_big.jpg","j","test","down","0","image-keyboard-response","48","288366","0.0-12.0-2.2","incongruent","2"
"6179.5","jsPsych/img/29_big.jpg","j","test","up","0","image-keyboard-response","51","298669","0.0-12.0-2.3","congruent","2"
"4142.699999988079","jsPsych/img/22_big.jpg","f","test","up","0","image-keyboard-response","54","306434","0.0-12.0-2.4","congruent","2"
"4217.599999964237","jsPsych/img/01_big.jpg","j","test","down","0","image-keyboard-response","57","314782","0.0-12.0-2.5","incongruent","2"
"2795.5","jsPsych/img/03_big.jpg","j","test","down","0","image-keyboard-response","60","321458","0.0-12.0-2.6","incongruent","2"
"7710.299999952316","jsPsych/img/28_big.jpg","j","test","up","0","image-keyboard-response","63","333291","0.0-12.0-2.7","incongruent","2"
"2789.399999976158","jsPsych/img/36_big.jpg","j","test","up","0","image-keyboard-response","66","339212","0.0-12.0-2.8","congruent","2"
"2609.5","jsPsych/img/25_big.jpg","f","test","up","0","image-keyboard-response","69","345445","0.0-12.0-2.9","congruent","2"
"6841.199999988079","jsPsych/img/09_big.jpg","f","test","down","0","image-keyboard-response","72","355898","0.0-12.0-2.10","incongruent","2"
"3835.300000011921","jsPsych/img/02_big.jpg","f","test","down","0","image-keyboard-response","75","362353","0.0-12.0-2.11","incongruent","2"
"1954.300000011921","jsPsych/img/07_big.jpg","f","test","down","0","image-keyboard-response","78","368432","0.0-12.0-2.12","incongruent","2"
"3774.199999988079","jsPsych/img/14_big.jpg","f","test","down","0","image-keyboard-response","81","375821","0.0-12.0-2.13","congruent","2"
"7850.800000011921","jsPsych/img/21_big.jpg","j","test","up","0","image-keyboard-response","84","387547","0.0-12.0-2.14","congruent","2"
"12913.5","jsPsych/img/30_big.jpg","j","test","up","0","image-keyboard-response","87","404589","0.0-12.0-2.15","congruent","2"
"2277.5","jsPsych/img/24_big.jpg","f","test","up","0","image-keyboard-response","90","409495","0.0-12.0-2.16","congruent","2"
"1779.800000011921","jsPsych/img/05_big.jpg","f","test","down","0","image-keyboard-response","93","414649","0.0-12.0-2.17","incongruent","2"
"1514.1000000238419","jsPsych/img/32_big.jpg","j","test","up","0","image-keyboard-response","96","419037","0.0-12.0-2.18","congruent","2"
"3332.099999964237","jsPsych/img/16_big.jpg","f","test","down","0","image-keyboard-response","99","425981","0.0-12.0-2.19","congruent","2"
"1653.800000011921","jsPsych/img/27_big.jpg","j","test","up","0","image-keyboard-response","102","430246","0.0-12.0-2.20","congruent","2"
"3583.5","jsPsych/img/12_big.jpg","f","test","down","0","image-keyboard-response","105","437441","0.0-12.0-2.21","incongruent","2"
"5613.800000011921","jsPsych/img/11_big.jpg","f","test","down","0","image-keyboard-response","108","446186","0.0-12.0-2.22","incongruent","2"
"6034.299999952316","jsPsych/img/10_big.jpg","j","test","down","0","image-keyboard-response","111","454829","0.0-12.0-2.23","incongruent","2"
"2097.7999999523163","jsPsych/img/35_big.jpg","f","test","up","0","image-keyboard-response","114","460798","0.0-12.0-2.24","congruent","2"
"2748.2999999523163","jsPsych/img/19_big.jpg","f","test","up","0","image-keyboard-response","117","467162","0.0-12.0-2.25","congruent","2"
"2350.900000035763","jsPsych/img/15_big.jpg","j","test","down","0","image-keyboard-response","120","473628","0.0-12.0-2.26","incongruent","2"
"2029.1000000238419","jsPsych/img/23_big.jpg","f","test","up","0","image-keyboard-response","123","478777","0.0-12.0-2.27","congruent","2"
"2228","jsPsych/img/26_big.jpg","f","test","up","0","image-keyboard-response","126","485116","0.0-12.0-2.28","incongruent","2"
"3400.800000011921","jsPsych/img/04_big.jpg","j","test","down","0","image-keyboard-response","129","492646","0.0-12.0-2.29","incongruent","2"
"6597.099999964237","jsPsych/img/33_big.jpg","f","test","up","0","image-keyboard-response","132","502603","0.0-12.0-2.30","incongruent","2"
"1726.800000011921","jsPsych/img/18_big.jpg","f","test","down","0","image-keyboard-response","135","507190","0.0-12.0-2.31","congruent","2"
"4165.700000017881","jsPsych/img/21_big.jpg","j","test","up","0","image-keyboard-response","42","240118","0.0-12.0-2.0","incongruent","2"
"2499.0999999940395","jsPsych/img/35_big.jpg","j","test","up","0","image-keyboard-response","45","246477","0.0-12.0-2.1","congruent","2"
"4750.800000011921","jsPsych/img/10_big.jpg","f","test","down","0","image-keyboard-response","48","255086","0.0-12.0-2.2","congruent","2"
"2809.0999999940395","jsPsych/img/13_big.jpg","f","test","down","0","image-keyboard-response","51","260505","0.0-12.0-2.3","congruent","2"
"3666.0999999940395","jsPsych/img/18_big.jpg","f","test","down","0","image-keyboard-response","54","268282","0.0-12.0-2.4","incongruent","2"
"1499.800000011921","jsPsych/img/24_big.jpg","j","test","up","0","image-keyboard-response","57","272391","0.0-12.0-2.5","congruent","2"
"789.8000000119209","jsPsych/img/15_big.jpg","j","test","down","0","image-keyboard-response","60","277045","0.0-12.0-2.6","incongruent","2"
"4488.799999982119","jsPsych/img/27_big.jpg","j","test","up","0","image-keyboard-response","63","284645","0.0-12.0-2.7","congruent","2"
"730.6999999880791","jsPsych/img/16_big.jpg","f","test","down","0","image-keyboard-response","66","289481","0.0-12.0-2.8","congruent","2"
"996.3000000119209","jsPsych/img/19_big.jpg","j","test","up","0","image-keyboard-response","69","293087","0.0-12.0-2.9","congruent","2"
"1781.699999988079","jsPsych/img/09_big.jpg","j","test","down","0","image-keyboard-response","72","298723","0.0-12.0-2.10","incongruent","2"
"1540.699999988079","jsPsych/img/03_big.jpg","f","test","down","0","image-keyboard-response","75","304372","0.0-12.0-2.11","incongruent","2"
"1763.6000000238419","jsPsych/img/01_big.jpg","j","test","down","0","image-keyboard-response","78","310245","0.0-12.0-2.12","incongruent","2"
"1769","jsPsych/img/23_big.jpg","f","test","up","0","image-keyboard-response","81","315375","0.0-12.0-2.13","congruent","2"
"1404","jsPsych/img/12_big.jpg","j","test","down","0","image-keyboard-response","84","319393","0.0-12.0-2.14","incongruent","2"
"2456.5","jsPsych/img/02_big.jpg","j","test","down","0","image-keyboard-response","87","325707","0.0-12.0-2.15","congruent","2"
"3155","jsPsych/img/33_big.jpg","j","test","up","0","image-keyboard-response","90","331467","0.0-12.0-2.16","congruent","2"
"1184.5","jsPsych/img/28_big.jpg","j","test","up","0","image-keyboard-response","93","336013","0.0-12.0-2.17","congruent","2"
"3294.100000023842","jsPsych/img/11_big.jpg","j","test","down","0","image-keyboard-response","96","342416","0.0-12.0-2.18","congruent","2"
"712.0999999940395","jsPsych/img/34_big.jpg","f","test","up","0","image-keyboard-response","99","346988","0.0-12.0-2.19","congruent","2"
"526.5999999940395","jsPsych/img/22_big.jpg","f","test","up","0","image-keyboard-response","102","351625","0.0-12.0-2.20","congruent","2"
"468.5","jsPsych/img/30_big.jpg","f","test","up","0","image-keyboard-response","105","355949","0.0-12.0-2.21","congruent","2"
"1100.800000011921","jsPsych/img/26_big.jpg","f","test","up","0","image-keyboard-response","108","360656","0.0-12.0-2.22","congruent","2"
"1260.5","jsPsych/img/14_big.jpg","j","test","down","0","image-keyboard-response","111","365527","0.0-12.0-2.23","incongruent","2"
"1733.0999999940395","jsPsych/img/25_big.jpg","j","test","up","0","image-keyboard-response","114","371366","0.0-12.0-2.24","congruent","2"
"985","jsPsych/img/32_big.jpg","j","test","up","0","image-keyboard-response","117","375959","0.0-12.0-2.25","congruent","2"
"917.5999999940395","jsPsych/img/04_big.jpg","j","test","down","0","image-keyboard-response","120","380237","0.0-12.0-2.26","incongruent","2"
"2976.2999999821186","jsPsych/img/36_big.jpg","f","test","up","0","image-keyboard-response","123","386072","0.0-12.0-2.27","incongruent","2"
"821","jsPsych/img/29_big.jpg","j","test","up","0","image-keyboard-response","126","391008","0.0-12.0-2.28","congruent","2"
"433.90000000596046","jsPsych/img/07_big.jpg","j","test","down","0","image-keyboard-response","129","395047","0.0-12.0-2.29","congruent","2"
"669.6999999880791","jsPsych/img/05_big.jpg","j","test","down","0","image-keyboard-response","132","398824","0.0-12.0-2.30","congruent","2"
"858.2999999821186","jsPsych/img/06_big.jpg","j","test","down","0","image-keyboard-response","135","402537","0.0-12.0-2.31","incongruent","2"
"35956","jsPsych/img/18_big.jpg","j","test","down","0","image-keyboard-response","42","273243","0.0-12.0-2.0","incongruent","2"
"6849","jsPsych/img/27_big.jpg","j","test","up","0","image-keyboard-response","45","283460","0.0-12.0-2.1","incongruent","2"
"7142","jsPsych/img/23_big.jpg","f","test","up","0","image-keyboard-response","48","294720","0.0-12.0-2.2","congruent","2"
"7491","jsPsych/img/14_big.jpg","f","test","down","0","image-keyboard-response","51","305831","0.0-12.0-2.3","congruent","2"
"7488","jsPsych/img/30_big.jpg","f","test","up","0","image-keyboard-response","54","316935","0.0-12.0-2.4","congruent","2"
"5214","jsPsych/img/05_big.jpg","f","test","down","0","image-keyboard-response","57","326017","0.0-12.0-2.5","congruent","2"
"10797","jsPsych/img/36_big.jpg","f","test","up","0","image-keyboard-response","60","340434","0.0-12.0-2.6","congruent","2"
"8535","jsPsych/img/16_big.jpg","f","test","down","0","image-keyboard-response","63","352339","0.0-12.0-2.7","congruent","2"
"14732","jsPsych/img/24_big.jpg","f","test","up","0","image-keyboard-response","66","369688","0.0-12.0-2.8","congruent","2"
"22809","jsPsych/img/15_big.jpg","j","test","down","0","image-keyboard-response","69","396114","0.0-12.0-2.9","incongruent","2"
"17884","jsPsych/img/21_big.jpg","f","test","up","0","image-keyboard-response","72","417114","0.0-12.0-2.10","incongruent","2"
"15807","jsPsych/img/26_big.jpg","j","test","up","0","image-keyboard-response","75","435541","0.0-12.0-2.11","incongruent","2"
"13402","jsPsych/img/25_big.jpg","j","test","up","0","image-keyboard-response","78","453061","0.0-12.0-2.12","incongruent","2"
"18412","jsPsych/img/01_big.jpg","j","test","down","0","image-keyboard-response","81","474591","0.0-12.0-2.13","incongruent","2"
"10630","jsPsych/img/12_big.jpg","j","test","down","0","image-keyboard-response","84","488335","0.0-12.0-2.14","congruent","2"
"9091","jsPsych/img/02_big.jpg","f","test","down","0","image-keyboard-response","87","501293","0.0-12.0-2.15","incongruent","2"
"12672","jsPsych/img/28_big.jpg","j","test","up","0","image-keyboard-response","90","518084","0.0-12.0-2.16","congruent","2"
"10650","jsPsych/img/29_big.jpg","j","test","up","0","image-keyboard-response","93","532850","0.0-12.0-2.17","incongruent","2"
"27948","jsPsych/img/34_big.jpg","f","test","up","0","image-keyboard-response","96","563660","0.0-12.0-2.18","congruent","2"
"8214","jsPsych/img/09_big.jpg","j","test","down","0","image-keyboard-response","99","575241","0.0-12.0-2.19","congruent","2"
"7603","jsPsych/img/04_big.jpg","f","test","down","0","image-keyboard-response","102","586962","0.0-12.0-2.20","incongruent","2"
"9911","jsPsych/img/35_big.jpg","j","test","up","0","image-keyboard-response","105","600240","0.0-12.0-2.21","congruent","2"
"12405","jsPsych/img/19_big.jpg","f","test","up","0","image-keyboard-response","108","615513","0.0-12.0-2.22","incongruent","2"
"8764","jsPsych/img/22_big.jpg","f","test","up","0","image-keyboard-response","111","628139","0.0-12.0-2.23","incongruent","2"
"8708","jsPsych/img/07_big.jpg","f","test","down","0","image-keyboard-response","114","640461","0.0-12.0-2.24","incongruent","2"
"11016","jsPsych/img/11_big.jpg","j","test","down","0","image-keyboard-response","117","654343","0.0-12.0-2.25","congruent","2"
"5265","jsPsych/img/13_big.jpg","f","test","down","0","image-keyboard-response","120","662227","0.0-12.0-2.26","congruent","2"
"12802","jsPsych/img/32_big.jpg","f","test","up","0","image-keyboard-response","123","677651","0.0-12.0-2.27","congruent","2"
"4099","jsPsych/img/33_big.jpg","f","test","up","0","image-keyboard-response","126","685120","0.0-12.0-2.28","congruent","2"
"7023","jsPsych/img/10_big.jpg","f","test","down","0","image-keyboard-response","129","696013","0.0-12.0-2.29","congruent","2"
"4128","jsPsych/img/06_big.jpg","j","test","down","0","image-keyboard-response","132","704260","0.0-12.0-2.30","congruent","2"
"6530","jsPsych/img/03_big.jpg","j","test","down","0","image-keyboard-response","135","714410","0.0-12.0-2.31","incongruent","2"
"1559.300000011921","jsPsych/img/26_big.jpg","f","test","up","0","image-keyboard-response","42","158813","0.0-12.0-2.0","congruent","2"
"1179.4000000357628","jsPsych/img/09_big.jpg","j","test","down","0","image-keyboard-response","45","162873","0.0-12.0-2.1","incongruent","2"
"1698.6000000238419","jsPsych/img/35_big.jpg","f","test","up","0","image-keyboard-response","48","168202","0.0-12.0-2.2","congruent","2"
"1188.9000000357628","jsPsych/img/18_big.jpg","j","test","down","0","image-keyboard-response","51","172772","0.0-12.0-2.3","congruent","2"
"812.5","jsPsych/img/10_big.jpg","f","test","down","0","image-keyboard-response","54","177716","0.0-12.0-2.4","congruent","2"
"1043","jsPsych/img/12_big.jpg","f","test","down","0","image-keyboard-response","57","181877","0.0-12.0-2.5","congruent","2"
"1531.7000000476837","jsPsych/img/29_big.jpg","f","test","up","0","image-keyboard-response","60","186285","0.0-12.0-2.6","congruent","2"
"1732.9000000357628","jsPsych/img/14_big.jpg","j","test","down","0","image-keyboard-response","63","192146","0.0-12.0-2.7","incongruent","2"
"1499.800000011921","jsPsych/img/03_big.jpg","f","test","down","0","image-keyboard-response","66","197525","0.0-12.0-2.8","incongruent","2"
"2123.5","jsPsych/img/32_big.jpg","j","test","up","0","image-keyboard-response","69","203791","0.0-12.0-2.9","congruent","2"
"497.10000002384186","jsPsych/img/27_big.jpg","f","test","up","0","image-keyboard-response","72","207422","0.0-12.0-2.10","congruent","2"
"1178.9000000357628","jsPsych/img/19_big.jpg","f","test","up","0","image-keyboard-response","75","212244","0.0-12.0-2.11","congruent","2"
"1437.8999999761581","jsPsych/img/22_big.jpg","f","test","up","0","image-keyboard-response","78","216573","0.0-12.0-2.12","incongruent","2"
"1479.8999999761581","jsPsych/img/36_big.jpg","j","test","up","0","image-keyboard-response","81","220685","0.0-12.0-2.13","incongruent","2"
"1070.2999999523163","jsPsych/img/13_big.jpg","j","test","down","0","image-keyboard-response","84","224386","0.0-12.0-2.14","incongruent","2"
"772.5","jsPsych/img/34_big.jpg","f","test","up","0","image-keyboard-response","87","228027","0.0-12.0-2.15","congruent","2"
"872.6999999880791","jsPsych/img/25_big.jpg","j","test","up","0","image-keyboard-response","90","232037","0.0-12.0-2.16","incongruent","2"
"1608.4000000357628","jsPsych/img/05_big.jpg","j","test","down","0","image-keyboard-response","93","237763","0.0-12.0-2.17","congruent","2"
"982.5","jsPsych/img/24_big.jpg","j","test","up","0","image-keyboard-response","96","242888","0.0-12.0-2.18","congruent","2"
"430.0999999642372","jsPsych/img/16_big.jpg","f","test","down","0","image-keyboard-response","99","245925","0.0-12.0-2.19","congruent","2"
"589","jsPsych/img/21_big.jpg","j","test","up","0","image-keyboard-response","102","250633","0.0-12.0-2.20","congruent","2"
"423.39999997615814","jsPsych/img/01_big.jpg","f","test","down","0","image-keyboard-response","105","255178","0.0-12.0-2.21","incongruent","2"
"1161.4000000357628","jsPsych/img/15_big.jpg","j","test","down","0","image-keyboard-response","108","260457","0.0-12.0-2.22","incongruent","2"
"1244.5","jsPsych/img/07_big.jpg","f","test","down","0","image-keyboard-response","111","265070","0.0-12.0-2.23","incongruent","2"
"657.5","jsPsych/img/33_big.jpg","f","test","up","0","image-keyboard-response","114","269353","0.0-12.0-2.24","congruent","2"
"687","jsPsych/img/02_big.jpg","f","test","down","0","image-keyboard-response","117","273411","0.0-12.0-2.25","congruent","2"
"408.0999999642372","jsPsych/img/28_big.jpg","j","test","up","0","image-keyboard-response","120","277464","0.0-12.0-2.26","congruent","2"
"908","jsPsych/img/11_big.jpg","f","test","down","0","image-keyboard-response","123","281513","0.0-12.0-2.27","congruent","2"
"866.9000000357628","jsPsych/img/04_big.jpg","f","test","down","0","image-keyboard-response","126","286022","0.0-12.0-2.28","incongruent","2"
"1079.699999988079","jsPsych/img/30_big.jpg","j","test","up","0","image-keyboard-response","129","290460","0.0-12.0-2.29","incongruent","2"
"1095.199999988079","jsPsych/img/06_big.jpg","j","test","down","0","image-keyboard-response","132","294180","0.0-12.0-2.30","congruent","2"
"958.4000000357628","jsPsych/img/23_big.jpg","f","test","up","0","image-keyboard-response","135","299274","0.0-12.0-2.31","incongruent","2"
"1112.7999999523163","jsPsych/img/15_big.jpg","j","test","down","0","image-keyboard-response","42","183757","0.0-12.0-2.0","incongruent","2"
"1208.6000000238419","jsPsych/img/05_big.jpg","j","test","down","0","image-keyboard-response","45","187577","0.0-12.0-2.1","incongruent","2"
"1642.1999999284744","jsPsych/img/35_big.jpg","f","test","up","0","image-keyboard-response","48","192832","0.0-12.0-2.2","incongruent","2"
"1462.3000000715256","jsPsych/img/07_big.jpg","j","test","down","0","image-keyboard-response","51","197910","0.0-12.0-2.3","incongruent","2"
"1435.7000000476837","jsPsych/img/01_big.jpg","f","test","down","0","image-keyboard-response","54","202710","0.0-12.0-2.4","incongruent","2"
"847","jsPsych/img/27_big.jpg","f","test","up","0","image-keyboard-response","57","207673","0.0-12.0-2.5","incongruent","2"
"1428.1000000238419","jsPsych/img/34_big.jpg","j","test","up","0","image-keyboard-response","60","211966","0.0-12.0-2.6","congruent","2"
"2931.6999999284744","jsPsych/img/02_big.jpg","f","test","down","0","image-keyboard-response","63","217512","0.0-12.0-2.7","congruent","2"
"1239.1000000238419","jsPsych/img/16_big.jpg","j","test","down","0","image-keyboard-response","66","221366","0.0-12.0-2.8","congruent","2"
"1643.1999999284744","jsPsych/img/25_big.jpg","j","test","up","0","image-keyboard-response","69","225624","0.0-12.0-2.9","incongruent","2"
"722.6000000238419","jsPsych/img/19_big.jpg","f","test","up","0","image-keyboard-response","72","228956","0.0-12.0-2.10","congruent","2"
"416","jsPsych/img/23_big.jpg","j","test","up","0","image-keyboard-response","75","232483","0.0-12.0-2.11","congruent","2"
"1212.6000000238419","jsPsych/img/30_big.jpg","j","test","up","0","image-keyboard-response","78","237558","0.0-12.0-2.12","incongruent","2"
"735.8999999761581","jsPsych/img/09_big.jpg","j","test","down","0","image-keyboard-response","81","242408","0.0-12.0-2.13","congruent","2"
"1049.6000000238419","jsPsych/img/29_big.jpg","j","test","up","0","image-keyboard-response","84","246070","0.0-12.0-2.14","congruent","2"
"156.59999990463257","jsPsych/img/33_big.jpg","f","test","up","0","image-keyboard-response","87","249839","0.0-12.0-2.15","congruent","2"
"664.8999999761581","jsPsych/img/03_big.jpg","j","test","down","0","image-keyboard-response","90","254369","0.0-12.0-2.16","congruent","2"
"366.39999997615814","jsPsych/img/26_big.jpg","j","test","up","0","image-keyboard-response","93","258097","0.0-12.0-2.17","congruent","2"
"555.5","jsPsych/img/13_big.jpg","j","test","down","0","image-keyboard-response","96","261517","0.0-12.0-2.18","incongruent","2"
"221.29999995231628","jsPsych/img/12_big.jpg","j","test","down","0","image-keyboard-response","99","265599","0.0-12.0-2.19","incongruent","2"
"334.89999997615814","jsPsych/img/18_big.jpg","f","test","down","0","image-keyboard-response","102","270049","0.0-12.0-2.20","incongruent","2"
"350.39999997615814","jsPsych/img/04_big.jpg","f","test","down","0","image-keyboard-response","105","273008","0.0-12.0-2.21","congruent","2"
"3407.899999976158","jsPsych/img/14_big.jpg","f","test","down","0","image-keyboard-response","108","279522","0.0-12.0-2.22","congruent","2"
"25.899999976158142","jsPsych/img/24_big.jpg","j","test","up","0","image-keyboard-response","111","283163","0.0-12.0-2.23","congruent","2"
"518","jsPsych/img/06_big.jpg","j","test","down","0","image-keyboard-response","114","286303","0.0-12.0-2.24","congruent","2"
"89.29999995231628","jsPsych/img/32_big.jpg","j","test","up","0","image-keyboard-response","117","290005","0.0-12.0-2.25","congruent","2"
"19.200000047683716","jsPsych/img/36_big.jpg","f","test","up","0","image-keyboard-response","120","294132","0.0-12.0-2.26","incongruent","2"
"189.29999995231628","jsPsych/img/10_big.jpg","f","test","down","0","image-keyboard-response","123","296931","0.0-12.0-2.27","congruent","2"
"3.299999952316284","jsPsych/img/11_big.jpg","f","test","down","0","image-keyboard-response","126","299791","0.0-12.0-2.28","congruent","2"
"172.80000007152557","jsPsych/img/22_big.jpg","j","test","up","0","image-keyboard-response","129","303324","0.0-12.0-2.29","congruent","2"
"324","jsPsych/img/28_big.jpg","j","test","up","0","image-keyboard-response","132","306762","0.0-12.0-2.30","congruent","2"
"182.10000002384186","jsPsych/img/21_big.jpg","j","test","up","0","image-keyboard-response","135","309807","0.0-12.0-2.31","congruent","2"
"3662.2000000178814","jsPsych/img/03_big.jpg","f","test","down","0","image-keyboard-response","42","143631","0.0-12.0-2.0","incongruent","2"
"1766.300000011921","jsPsych/img/35_big.jpg","f","test","up","0","image-keyboard-response","45","148504","0.0-12.0-2.1","incongruent","2"
"1434.5","jsPsych/img/23_big.jpg","f","test","up","0","image-keyboard-response","48","152797","0.0-12.0-2.2","congruent","2"
"2318.5999999940395","jsPsych/img/26_big.jpg","j","test","up","0","image-keyboard-response","51","159143","0.0-12.0-2.3","congruent","2"
"2032.7000000178814","jsPsych/img/15_big.jpg","f","test","down","0","image-keyboard-response","54","164530","0.0-12.0-2.4","congruent","2"
"1604.4000000059605","jsPsych/img/33_big.jpg","f","test","up","0","image-keyboard-response","57","169744","0.0-12.0-2.5","incongruent","2"
"1929.300000011921","jsPsych/img/19_big.jpg","f","test","up","0","image-keyboard-response","60","174278","0.0-12.0-2.6","congruent","2"
"2261.5","jsPsych/img/11_big.jpg","j","test","down","0","image-keyboard-response","63","179647","0.0-12.0-2.7","incongruent","2"
"1701.8999999761581","jsPsych/img/07_big.jpg","f","test","down","0","image-keyboard-response","66","184206","0.0-12.0-2.8","incongruent","2"
"2019.4000000059605","jsPsych/img/32_big.jpg","j","test","up","0","image-keyboard-response","69","188834","0.0-12.0-2.9","incongruent","2"
"1997.199999988079","jsPsych/img/27_big.jpg","f","test","up","0","image-keyboard-response","72","194437","0.0-12.0-2.10","congruent","2"
"3363.300000011921","jsPsych/img/10_big.jpg","j","test","down","0","image-keyboard-response","75","201658","0.0-12.0-2.11","incongruent","2"
"2305","jsPsych/img/24_big.jpg","j","test","up","0","image-keyboard-response","78","207820","0.0-12.0-2.12","congruent","2"
"1602.1000000238419","jsPsych/img/04_big.jpg","f","test","down","0","image-keyboard-response","81","212027","0.0-12.0-2.13","incongruent","2"
"2390.7999999821186","jsPsych/img/13_big.jpg","f","test","down","0","image-keyboard-response","84","217275","0.0-12.0-2.14","congruent","2"
"2027.1000000238419","jsPsych/img/34_big.jpg","f","test","up","0","image-keyboard-response","87","223159","0.0-12.0-2.15","incongruent","2"
"2046.7999999821186","jsPsych/img/22_big.jpg","j","test","up","0","image-keyboard-response","90","228562","0.0-12.0-2.16","congruent","2"
"1363.800000011921","jsPsych/img/01_big.jpg","j","test","down","0","image-keyboard-response","93","232532","0.0-12.0-2.17","incongruent","2"
"2043.699999988079","jsPsych/img/16_big.jpg","j","test","down","0","image-keyboard-response","96","237180","0.0-12.0-2.18","incongruent","2"
"1259.4000000059605","jsPsych/img/05_big.jpg","j","test","down","0","image-keyboard-response","99","242046","0.0-12.0-2.19","incongruent","2"
"3367.9000000059605","jsPsych/img/12_big.jpg","f","test","down","0","image-keyboard-response","102","249521","0.0-12.0-2.20","incongruent","2"
"3142.9000000059605","jsPsych/img/21_big.jpg","f","test","up","0","image-keyboard-response","105","256519","0.0-12.0-2.21","incongruent","2"
"2387.5","jsPsych/img/28_big.jpg","f","test","up","0","image-keyboard-response","108","262762","0.0-12.0-2.22","incongruent","2"
"7451.299999982119","jsPsych/img/18_big.jpg","j","test","down","0","image-keyboard-response","111","273076","0.0-12.0-2.23","congruent","2"
"1155.5","jsPsych/img/25_big.jpg","f","test","up","0","image-keyboard-response","114","277090","0.0-12.0-2.24","incongruent","2"
"1972.2999999821186","jsPsych/img/29_big.jpg","j","test","up","0","image-keyboard-response","117","283168","0.0-12.0-2.25","incongruent","2"
"3707.5999999940395","jsPsych/img/09_big.jpg","f","test","down","0","image-keyboard-response","120","289731","0.0-12.0-2.26","incongruent","2"
"1474.0999999940395","jsPsych/img/06_big.jpg","f","test","down","0","image-keyboard-response","123","293811","0.0-12.0-2.27","incongruent","2"
"2741.300000011921","jsPsych/img/14_big.jpg","f","test","down","0","image-keyboard-response","126","300407","0.0-12.0-2.28","congruent","2"
"2619.7000000178814","jsPsych/img/30_big.jpg","j","test","up","0","image-keyboard-response","129","306634","0.0-12.0-2.29","congruent","2"
"2892.4000000059605","jsPsych/img/02_big.jpg","j","test","down","0","image-keyboard-response","132","312379","0.0-12.0-2.30","congruent","2"
"2853.5","jsPsych/img/36_big.jpg","f","test","up","0","image-keyboard-response","135","318341","0.0-12.0-2.31","incongruent","2"
