"rt","stimulus","response","task","condition","random","trial_type","trial_index","time_elapsed","internal_node_id","match","hp_test"
"2867.79999999993","jsPsych/img/03_big.jpg","f","test","down","0","image-keyboard-response","42","150961","0.0-12.0-2.0","congruent","2"
"1397.5","jsPsych/img/12_big.jpg","j","test","down","0","image-keyboard-response","45","155229","0.0-12.0-2.1","incongruent","2"
"1663.1999999999534","jsPsych/img/15_big.jpg","f","test","down","0","image-keyboard-response","48","159767","0.0-12.0-2.2","congruent","2"
"1050.7000000000698","jsPsych/img/09_big.jpg","j","test","down","0","image-keyboard-response","51","163687","0.0-12.0-2.3","incongruent","2"
"1870.3000000000466","jsPsych/img/16_big.jpg","j","test","down","0","image-keyboard-response","54","168431","0.0-12.0-2.4","congruent","2"
"1117.9000000000233","jsPsych/img/23_big.jpg","f","test","up","0","image-keyboard-response","57","173428","0.0-12.0-2.5","incongruent","2"
"2076","jsPsych/img/22_big.jpg","f","test","up","0","image-keyboard-response","60","179618","0.0-12.0-2.6","congruent","2"
"1476.3999999999069","jsPsych/img/30_big.jpg","j","test","up","0","image-keyboard-response","63","184715","0.0-12.0-2.7","incongruent","2"
"1995.8000000000466","jsPsych/img/24_big.jpg","f","test","up","0","image-keyboard-response","66","190073","0.0-12.0-2.8","congruent","2"
"1608.4000000000233","jsPsych/img/11_big.jpg","j","test","down","0","image-keyboard-response","69","194796","0.0-12.0-2.9","incongruent","2"
"903.6999999999534","jsPsych/img/13_big.jpg","j","test","down","0","image-keyboard-response","72","199571","0.0-12.0-2.10","incongruent","2"
"1366.1999999999534","jsPsych/img/29_big.jpg","j","test","up","0","image-keyboard-response","75","204557","0.0-12.0-2.11","incongruent","2"
"1079.1000000000931","jsPsych/img/04_big.jpg","j","test","down","0","image-keyboard-response","78","208263","0.0-12.0-2.12","incongruent","2"
"1633.2000000000698","jsPsych/img/32_big.jpg","f","test","up","0","image-keyboard-response","81","212760","0.0-12.0-2.13","incongruent","2"
"1202.3000000000466","jsPsych/img/33_big.jpg","j","test","up","0","image-keyboard-response","84","216577","0.0-12.0-2.14","incongruent","2"
"888.0999999999767","jsPsych/img/25_big.jpg","j","test","up","0","image-keyboard-response","87","220592","0.0-12.0-2.15","incongruent","2"
"1298.6999999999534","jsPsych/img/10_big.jpg","f","test","down","0","image-keyboard-response","90","224515","0.0-12.0-2.16","congruent","2"
"684.7999999999302","jsPsych/img/19_big.jpg","j","test","up","0","image-keyboard-response","93","229071","0.0-12.0-2.17","incongruent","2"
"1096.6999999999534","jsPsych/img/02_big.jpg","f","test","down","0","image-keyboard-response","96","232786","0.0-12.0-2.18","congruent","2"
"796","jsPsych/img/21_big.jpg","j","test","up","0","image-keyboard-response","99","236947","0.0-12.0-2.19","congruent","2"
"821.0999999999767","jsPsych/img/18_big.jpg","j","test","down","0","image-keyboard-response","102","241888","0.0-12.0-2.20","incongruent","2"
"742.3000000000466","jsPsych/img/34_big.jpg","j","test","up","0","image-keyboard-response","105","246250","0.0-12.0-2.21","congruent","2"
"763.9000000000233","jsPsych/img/27_big.jpg","j","test","up","0","image-keyboard-response","108","249888","0.0-12.0-2.22","incongruent","2"
"1084.7999999999302","jsPsych/img/07_big.jpg","f","test","down","0","image-keyboard-response","111","254848","0.0-12.0-2.23","congruent","2"
"1207.2000000000698","jsPsych/img/28_big.jpg","f","test","up","0","image-keyboard-response","114","259433","0.0-12.0-2.24","congruent","2"
"1052.5999999999767","jsPsych/img/05_big.jpg","j","test","down","0","image-keyboard-response","117","264606","0.0-12.0-2.25","congruent","2"
"2425.3000000000466","jsPsych/img/01_big.jpg","f","test","down","0","image-keyboard-response","120","270403","0.0-12.0-2.26","incongruent","2"
"774.0999999999767","jsPsych/img/06_big.jpg","j","test","down","0","image-keyboard-response","123","273801","0.0-12.0-2.27","congruent","2"
"1045.9000000000233","jsPsych/img/26_big.jpg","j","test","up","0","image-keyboard-response","126","277966","0.0-12.0-2.28","congruent","2"
"1301.4000000000233","jsPsych/img/14_big.jpg","f","test","down","0","image-keyboard-response","129","283128","0.0-12.0-2.29","congruent","2"
"692.7999999999302","jsPsych/img/35_big.jpg","f","test","up","0","image-keyboard-response","132","286446","0.0-12.0-2.30","congruent","2"
"2152.4000000000233","jsPsych/img/36_big.jpg","j","test","up","0","image-keyboard-response","135","291723","0.0-12.0-2.31","congruent","2"
"126.30000000004657","jsPsych/img/32_big.jpg","j","test","up","0","image-keyboard-response","42","99292","0.0-12.0-2.0","congruent","2"
"97.5","jsPsych/img/01_big.jpg","f","test","down","0","image-keyboard-response","45","102512","0.0-12.0-2.1","incongruent","2"
"138.80000000004657","jsPsych/img/16_big.jpg","j","test","down","0","image-keyboard-response","48","106015","0.0-12.0-2.2","incongruent","2"
"61.79999999993015","jsPsych/img/24_big.jpg","j","test","up","0","image-keyboard-response","51","108695","0.0-12.0-2.3","incongruent","2"
"224.59999999997672","jsPsych/img/13_big.jpg","j","test","down","0","image-keyboard-response","54","112790","0.0-12.0-2.4","congruent","2"
"230.79999999993015","jsPsych/img/25_big.jpg","j","test","up","0","image-keyboard-response","57","116140","0.0-12.0-2.5","congruent","2"
"57.10000000009313","jsPsych/img/34_big.jpg","j","test","up","0","image-keyboard-response","60","119314","0.0-12.0-2.6","incongruent","2"
"34.5","jsPsych/img/27_big.jpg","f","test","up","0","image-keyboard-response","63","121970","0.0-12.0-2.7","incongruent","2"
"175.60000000009313","jsPsych/img/36_big.jpg","j","test","up","0","image-keyboard-response","66","125018","0.0-12.0-2.8","incongruent","2"
"30.199999999953434","jsPsych/img/35_big.jpg","j","test","up","0","image-keyboard-response","69","128912","0.0-12.0-2.9","congruent","2"
"17.899999999906868","jsPsych/img/07_big.jpg","j","test","down","0","image-keyboard-response","72","132052","0.0-12.0-2.10","incongruent","2"
"54.89999999990687","jsPsych/img/10_big.jpg","j","test","down","0","image-keyboard-response","75","135732","0.0-12.0-2.11","incongruent","2"
"50.10000000009313","jsPsych/img/05_big.jpg","f","test","down","0","image-keyboard-response","78","139138","0.0-12.0-2.12","congruent","2"
"95.39999999990687","jsPsych/img/21_big.jpg","f","test","up","0","image-keyboard-response","81","143098","0.0-12.0-2.13","incongruent","2"
"99.19999999995343","jsPsych/img/12_big.jpg","f","test","down","0","image-keyboard-response","84","147307","0.0-12.0-2.14","incongruent","2"
"78.10000000009313","jsPsych/img/28_big.jpg","j","test","up","0","image-keyboard-response","87","151260","0.0-12.0-2.15","congruent","2"
"155.69999999995343","jsPsych/img/04_big.jpg","j","test","down","0","image-keyboard-response","90","155038","0.0-12.0-2.16","congruent","2"
"145.69999999995343","jsPsych/img/18_big.jpg","f","test","down","0","image-keyboard-response","93","159291","0.0-12.0-2.17","congruent","2"
"87.5","jsPsych/img/06_big.jpg","f","test","down","0","image-keyboard-response","96","163251","0.0-12.0-2.18","incongruent","2"
"87.60000000009313","jsPsych/img/15_big.jpg","j","test","down","0","image-keyboard-response","99","167451","0.0-12.0-2.19","congruent","2"
"29.399999999906868","jsPsych/img/19_big.jpg","f","test","up","0","image-keyboard-response","102","171098","0.0-12.0-2.20","congruent","2"
"144","jsPsych/img/14_big.jpg","f","test","down","0","image-keyboard-response","105","174613","0.0-12.0-2.21","congruent","2"
"35.199999999953434","jsPsych/img/03_big.jpg","f","test","down","0","image-keyboard-response","108","177261","0.0-12.0-2.22","congruent","2"
"157.69999999995343","jsPsych/img/22_big.jpg","j","test","up","0","image-keyboard-response","111","181033","0.0-12.0-2.23","incongruent","2"
"188.10000000009313","jsPsych/img/29_big.jpg","j","test","up","0","image-keyboard-response","114","183829","0.0-12.0-2.24","incongruent","2"
"151.5999999998603","jsPsych/img/11_big.jpg","f","test","down","0","image-keyboard-response","117","186612","0.0-12.0-2.25","incongruent","2"
"8.5","jsPsych/img/02_big.jpg","f","test","down","0","image-keyboard-response","120","189482","0.0-12.0-2.26","congruent","2"
"120.5","jsPsych/img/26_big.jpg","f","test","up","0","image-keyboard-response","123","192974","0.0-12.0-2.27","incongruent","2"
"259.10000000009313","jsPsych/img/30_big.jpg","f","test","up","0","image-keyboard-response","126","197101","0.0-12.0-2.28","incongruent","2"
"21.699999999953434","jsPsych/img/23_big.jpg","j","test","up","0","image-keyboard-response","129","200742","0.0-12.0-2.29","incongruent","2"
"163","jsPsych/img/09_big.jpg","j","test","down","0","image-keyboard-response","132","204526","0.0-12.0-2.30","congruent","2"
"94.30000000004657","jsPsych/img/33_big.jpg","f","test","up","0","image-keyboard-response","135","207479","0.0-12.0-2.31","congruent","2"
"5669.5","jsPsych/img/19_big.jpg","f","test","up","0","image-keyboard-response","42","207476","0.0-12.0-2.0","congruent","2"
"9775.5","jsPsych/img/22_big.jpg","f","test","up","0","image-keyboard-response","45","221372","0.0-12.0-2.1","incongruent","2"
"5094.900000095367","jsPsych/img/24_big.jpg","f","test","up","0","image-keyboard-response","48","230084","0.0-12.0-2.2","incongruent","2"
"6224.300000190735","jsPsych/img/06_big.jpg","j","test","down","0","image-keyboard-response","51","239439","0.0-12.0-2.3","congruent","2"
"2857.4000000953674","jsPsych/img/15_big.jpg","f","test","down","0","image-keyboard-response","54","245665","0.0-12.0-2.4","congruent","2"
"6859.599999904633","jsPsych/img/28_big.jpg","f","test","up","0","image-keyboard-response","57","256146","0.0-12.0-2.5","congruent","2"
"3865.600000143051","jsPsych/img/26_big.jpg","f","test","up","0","image-keyboard-response","60","263883","0.0-12.0-2.6","incongruent","2"
"5489","jsPsych/img/29_big.jpg","f","test","up","0","image-keyboard-response","63","273492","0.0-12.0-2.7","congruent","2"
"6735.700000047684","jsPsych/img/07_big.jpg","f","test","down","0","image-keyboard-response","66","283607","0.0-12.0-2.8","congruent","2"
"5453","jsPsych/img/27_big.jpg","j","test","up","0","image-keyboard-response","69","293189","0.0-12.0-2.9","congruent","2"
"3859.9000000953674","jsPsych/img/11_big.jpg","j","test","down","0","image-keyboard-response","72","300918","0.0-12.0-2.10","incongruent","2"
"3821.5","jsPsych/img/13_big.jpg","j","test","down","0","image-keyboard-response","75","308372","0.0-12.0-2.11","congruent","2"
"3615.9000000953674","jsPsych/img/14_big.jpg","f","test","down","0","image-keyboard-response","78","315349","0.0-12.0-2.12","incongruent","2"
"4801.200000047684","jsPsych/img/21_big.jpg","f","test","up","0","image-keyboard-response","81","324292","0.0-12.0-2.13","congruent","2"
"5330.800000190735","jsPsych/img/33_big.jpg","j","test","up","0","image-keyboard-response","84","332753","0.0-12.0-2.14","incongruent","2"
"6817.400000095367","jsPsych/img/36_big.jpg","f","test","up","0","image-keyboard-response","87","343691","0.0-12.0-2.15","incongruent","2"
"7898.199999809265","jsPsych/img/16_big.jpg","j","test","down","0","image-keyboard-response","90","354221","0.0-12.0-2.16","congruent","2"
"3862.0999999046326","jsPsych/img/05_big.jpg","f","test","down","0","image-keyboard-response","93","362195","0.0-12.0-2.17","congruent","2"
"3486.600000143051","jsPsych/img/25_big.jpg","j","test","up","0","image-keyboard-response","96","369563","0.0-12.0-2.18","congruent","2"
"12068.800000190735","jsPsych/img/09_big.jpg","f","test","down","0","image-keyboard-response","99","385745","0.0-12.0-2.19","incongruent","2"
"2718.399999856949","jsPsych/img/35_big.jpg","f","test","up","0","image-keyboard-response","102","392594","0.0-12.0-2.20","incongruent","2"
"3267.2999999523163","jsPsych/img/12_big.jpg","j","test","down","0","image-keyboard-response","105","399485","0.0-12.0-2.21","congruent","2"
"4628.899999856949","jsPsych/img/01_big.jpg","j","test","down","0","image-keyboard-response","108","407731","0.0-12.0-2.22","congruent","2"
"4634.5","jsPsych/img/02_big.jpg","j","test","down","0","image-keyboard-response","111","415001","0.0-12.0-2.23","congruent","2"
"3233.899999856949","jsPsych/img/32_big.jpg","j","test","up","0","image-keyboard-response","114","421357","0.0-12.0-2.24","congruent","2"
"4745.899999856949","jsPsych/img/18_big.jpg","f","test","down","0","image-keyboard-response","117","428733","0.0-12.0-2.25","incongruent","2"
"5215","jsPsych/img/03_big.jpg","j","test","down","0","image-keyboard-response","120","437583","0.0-12.0-2.26","congruent","2"
"3028.5","jsPsych/img/10_big.jpg","j","test","down","0","image-keyboard-response","123","443239","0.0-12.0-2.27","incongruent","2"
"5134.799999952316","jsPsych/img/30_big.jpg","f","test","up","0","image-keyboard-response","126","452250","0.0-12.0-2.28","incongruent","2"
"3288.7999999523163","jsPsych/img/23_big.jpg","f","test","up","0","image-keyboard-response","129","459651","0.0-12.0-2.29","incongruent","2"
"3240.600000143051","jsPsych/img/34_big.jpg","f","test","up","0","image-keyboard-response","132","467019","0.0-12.0-2.30","congruent","2"
"4461.600000143051","jsPsych/img/04_big.jpg","j","test","down","0","image-keyboard-response","135","475107","0.0-12.0-2.31","congruent","2"
"2498.3000000715256","jsPsych/img/21_big.jpg","f","test","up","0","image-keyboard-response","42","192669","0.0-12.0-2.0","incongruent","2"
"1295","jsPsych/img/23_big.jpg","j","test","up","0","image-keyboard-response","45","197087","0.0-12.0-2.1","congruent","2"
"1231.5","jsPsych/img/16_big.jpg","j","test","down","0","image-keyboard-response","48","201445","0.0-12.0-2.2","congruent","2"
"1420.3999999761581","jsPsych/img/07_big.jpg","j","test","down","0","image-keyboard-response","51","206492","0.0-12.0-2.3","incongruent","2"
"1434.8000000715256","jsPsych/img/33_big.jpg","f","test","up","0","image-keyboard-response","54","210791","0.0-12.0-2.4","incongruent","2"
"1493.2000000476837","jsPsych/img/34_big.jpg","j","test","up","0","image-keyboard-response","57","215894","0.0-12.0-2.5","incongruent","2"
"985","jsPsych/img/32_big.jpg","f","test","up","0","image-keyboard-response","60","220986","0.0-12.0-2.6","congruent","2"
"1068.2999999523163","jsPsych/img/01_big.jpg","f","test","down","0","image-keyboard-response","63","225182","0.0-12.0-2.7","incongruent","2"
"2262.899999976158","jsPsych/img/09_big.jpg","j","test","down","0","image-keyboard-response","66","231320","0.0-12.0-2.8","congruent","2"
"2315.899999976158","jsPsych/img/30_big.jpg","f","test","up","0","image-keyboard-response","69","237508","0.0-12.0-2.9","incongruent","2"
"1663.8999999761581","jsPsych/img/13_big.jpg","f","test","down","0","image-keyboard-response","72","242290","0.0-12.0-2.10","incongruent","2"
"1365","jsPsych/img/25_big.jpg","j","test","up","0","image-keyboard-response","75","247279","0.0-12.0-2.11","incongruent","2"
"1178.1000000238419","jsPsych/img/10_big.jpg","j","test","down","0","image-keyboard-response","78","252572","0.0-12.0-2.12","congruent","2"
"1227.3999999761581","jsPsych/img/19_big.jpg","j","test","up","0","image-keyboard-response","81","257424","0.0-12.0-2.13","congruent","2"
"1325.6000000238419","jsPsych/img/05_big.jpg","j","test","down","0","image-keyboard-response","84","261622","0.0-12.0-2.14","congruent","2"
"1665.6999999284744","jsPsych/img/06_big.jpg","f","test","down","0","image-keyboard-response","87","265906","0.0-12.0-2.15","incongruent","2"
"1103.1999999284744","jsPsych/img/27_big.jpg","f","test","up","0","image-keyboard-response","90","269891","0.0-12.0-2.16","congruent","2"
"1187.6999999284744","jsPsych/img/22_big.jpg","f","test","up","0","image-keyboard-response","93","274446","0.0-12.0-2.17","incongruent","2"
"1484.3000000715256","jsPsych/img/04_big.jpg","f","test","down","0","image-keyboard-response","96","280040","0.0-12.0-2.18","congruent","2"
"1199.8999999761581","jsPsych/img/29_big.jpg","j","test","up","0","image-keyboard-response","99","283851","0.0-12.0-2.19","incongruent","2"
"1539","jsPsych/img/12_big.jpg","j","test","down","0","image-keyboard-response","102","288773","0.0-12.0-2.20","incongruent","2"
"1071.2000000476837","jsPsych/img/15_big.jpg","f","test","down","0","image-keyboard-response","105","293214","0.0-12.0-2.21","incongruent","2"
"1069.5","jsPsych/img/36_big.jpg","f","test","up","0","image-keyboard-response","108","296901","0.0-12.0-2.22","congruent","2"
"1096.3999999761581","jsPsych/img/28_big.jpg","f","test","up","0","image-keyboard-response","111","300869","0.0-12.0-2.23","incongruent","2"
"1066.1000000238419","jsPsych/img/35_big.jpg","j","test","up","0","image-keyboard-response","114","304795","0.0-12.0-2.24","congruent","2"
"951.1000000238419","jsPsych/img/24_big.jpg","f","test","up","0","image-keyboard-response","117","309610","0.0-12.0-2.25","congruent","2"
"752","jsPsych/img/26_big.jpg","j","test","up","0","image-keyboard-response","120","313479","0.0-12.0-2.26","incongruent","2"
"388.90000009536743","jsPsych/img/02_big.jpg","f","test","down","0","image-keyboard-response","123","316745","0.0-12.0-2.27","congruent","2"
"673.4000000953674","jsPsych/img/11_big.jpg","f","test","down","0","image-keyboard-response","126","320543","0.0-12.0-2.28","congruent","2"
"654.3000000715256","jsPsych/img/18_big.jpg","f","test","down","0","image-keyboard-response","129","324054","0.0-12.0-2.29","incongruent","2"
"648.8999999761581","jsPsych/img/14_big.jpg","j","test","down","0","image-keyboard-response","132","327336","0.0-12.0-2.30","incongruent","2"
"822","jsPsych/img/03_big.jpg","f","test","down","0","image-keyboard-response","135","331783","0.0-12.0-2.31","incongruent","2"
"1692","jsPsych/img/15_big.jpg","f","test","down","0","image-keyboard-response","42","238692","0.0-12.0-2.0","congruent","2"
"1701","jsPsych/img/13_big.jpg","f","test","down","0","image-keyboard-response","45","243772","0.0-12.0-2.1","congruent","2"
"2053","jsPsych/img/25_big.jpg","f","test","up","0","image-keyboard-response","48","249192","0.0-12.0-2.2","incongruent","2"
"3114","jsPsych/img/01_big.jpg","f","test","down","0","image-keyboard-response","51","255432","0.0-12.0-2.3","incongruent","2"
"1631","jsPsych/img/06_big.jpg","j","test","down","0","image-keyboard-response","54","261191","0.0-12.0-2.4","congruent","2"
"3633","jsPsych/img/34_big.jpg","j","test","up","0","image-keyboard-response","57","268952","0.0-12.0-2.5","incongruent","2"
"3033","jsPsych/img/16_big.jpg","j","test","down","0","image-keyboard-response","60","276122","0.0-12.0-2.6","congruent","2"
"2402","jsPsych/img/29_big.jpg","f","test","up","0","image-keyboard-response","63","282652","0.0-12.0-2.7","incongruent","2"
"2463","jsPsych/img/28_big.jpg","f","test","up","0","image-keyboard-response","66","288242","0.0-12.0-2.8","incongruent","2"
"3563","jsPsych/img/14_big.jpg","j","test","down","0","image-keyboard-response","69","295432","0.0-12.0-2.9","congruent","2"
"1841","jsPsych/img/07_big.jpg","f","test","down","0","image-keyboard-response","72","300652","0.0-12.0-2.10","incongruent","2"
"2942","jsPsych/img/05_big.jpg","j","test","down","0","image-keyboard-response","75","306472","0.0-12.0-2.11","congruent","2"
"1613","jsPsych/img/12_big.jpg","f","test","down","0","image-keyboard-response","78","311461","0.0-12.0-2.12","congruent","2"
"1322","jsPsych/img/35_big.jpg","f","test","up","0","image-keyboard-response","81","315912","0.0-12.0-2.13","incongruent","2"
"1961","jsPsych/img/24_big.jpg","f","test","up","0","image-keyboard-response","84","321240","0.0-12.0-2.14","congruent","2"
"2144","jsPsych/img/27_big.jpg","f","test","up","0","image-keyboard-response","87","327001","0.0-12.0-2.15","congruent","2"
"2315","jsPsych/img/18_big.jpg","f","test","down","0","image-keyboard-response","90","332181","0.0-12.0-2.16","incongruent","2"
"1242","jsPsych/img/02_big.jpg","f","test","down","0","image-keyboard-response","93","337313","0.0-12.0-2.17","incongruent","2"
"1815","jsPsych/img/09_big.jpg","f","test","down","0","image-keyboard-response","96","342013","0.0-12.0-2.18","incongruent","2"
"2071","jsPsych/img/21_big.jpg","f","test","up","0","image-keyboard-response","99","346702","0.0-12.0-2.19","congruent","2"
"1293","jsPsych/img/26_big.jpg","f","test","up","0","image-keyboard-response","102","351881","0.0-12.0-2.20","congruent","2"
"2351","jsPsych/img/11_big.jpg","f","test","down","0","image-keyboard-response","105","357102","0.0-12.0-2.21","congruent","2"
"2291","jsPsych/img/04_big.jpg","j","test","down","0","image-keyboard-response","108","363521","0.0-12.0-2.22","congruent","2"
"852","jsPsych/img/23_big.jpg","f","test","up","0","image-keyboard-response","111","366992","0.0-12.0-2.23","incongruent","2"
"1861","jsPsych/img/30_big.jpg","f","test","up","0","image-keyboard-response","114","371732","0.0-12.0-2.24","congruent","2"
"2353","jsPsych/img/36_big.jpg","f","test","up","0","image-keyboard-response","117","377702","0.0-12.0-2.25","congruent","2"
"1614","jsPsych/img/33_big.jpg","f","test","up","0","image-keyboard-response","120","381941","0.0-12.0-2.26","congruent","2"
"1312","jsPsych/img/22_big.jpg","f","test","up","0","image-keyboard-response","123","387141","0.0-12.0-2.27","congruent","2"
"2232","jsPsych/img/32_big.jpg","j","test","up","0","image-keyboard-response","126","393252","0.0-12.0-2.28","congruent","2"
"2102","jsPsych/img/10_big.jpg","f","test","down","0","image-keyboard-response","129","397991","0.0-12.0-2.29","congruent","2"
"1802","jsPsych/img/03_big.jpg","f","test","down","0","image-keyboard-response","132","403422","0.0-12.0-2.30","congruent","2"
"1192","jsPsych/img/19_big.jpg","f","test","up","0","image-keyboard-response","135","407732","0.0-12.0-2.31","incongruent","2"
"4314.600000143051","jsPsych/img/01_big.jpg","f","test","down","0","image-keyboard-response","42","180882","0.0-12.0-2.0","incongruent","2"
"8539.100000143051","jsPsych/img/07_big.jpg","f","test","down","0","image-keyboard-response","45","193551","0.0-12.0-2.1","incongruent","2"
"2987.9000000953674","jsPsych/img/27_big.jpg","j","test","up","0","image-keyboard-response","48","199406","0.0-12.0-2.2","incongruent","2"
"3086.2000000476837","jsPsych/img/30_big.jpg","j","test","up","0","image-keyboard-response","51","205368","0.0-12.0-2.3","congruent","2"
"3333.0999999046326","jsPsych/img/06_big.jpg","j","test","down","0","image-keyboard-response","54","212068","0.0-12.0-2.4","incongruent","2"
"1628.5","jsPsych/img/19_big.jpg","j","test","up","0","image-keyboard-response","57","216573","0.0-12.0-2.5","incongruent","2"
"2303.300000190735","jsPsych/img/21_big.jpg","j","test","up","0","image-keyboard-response","60","222746","0.0-12.0-2.6","incongruent","2"
"1635.5","jsPsych/img/11_big.jpg","f","test","down","0","image-keyboard-response","63","228250","0.0-12.0-2.7","congruent","2"
"1315.7000000476837","jsPsych/img/12_big.jpg","j","test","down","0","image-keyboard-response","66","232447","0.0-12.0-2.8","congruent","2"
"2145.800000190735","jsPsych/img/14_big.jpg","j","test","down","0","image-keyboard-response","69","237224","0.0-12.0-2.9","congruent","2"
"2550.2000000476837","jsPsych/img/04_big.jpg","f","test","down","0","image-keyboard-response","72","242900","0.0-12.0-2.10","incongruent","2"
"3473.5999999046326","jsPsych/img/18_big.jpg","f","test","down","0","image-keyboard-response","75","249997","0.0-12.0-2.11","congruent","2"
"2742.5","jsPsych/img/36_big.jpg","j","test","up","0","image-keyboard-response","78","255609","0.0-12.0-2.12","incongruent","2"
"1476.6000001430511","jsPsych/img/23_big.jpg","j","test","up","0","image-keyboard-response","81","260457","0.0-12.0-2.13","incongruent","2"
"2794.5999999046326","jsPsych/img/02_big.jpg","f","test","down","0","image-keyboard-response","84","266871","0.0-12.0-2.14","incongruent","2"
"1358.9000000953674","jsPsych/img/15_big.jpg","j","test","down","0","image-keyboard-response","87","272092","0.0-12.0-2.15","congruent","2"
"1913.5","jsPsych/img/34_big.jpg","j","test","up","0","image-keyboard-response","90","276866","0.0-12.0-2.16","incongruent","2"
"3064.7000000476837","jsPsych/img/16_big.jpg","f","test","down","0","image-keyboard-response","93","282552","0.0-12.0-2.17","congruent","2"
"1764.5","jsPsych/img/13_big.jpg","j","test","down","0","image-keyboard-response","96","287685","0.0-12.0-2.18","congruent","2"
"1910.7999999523163","jsPsych/img/33_big.jpg","j","test","up","0","image-keyboard-response","99","293471","0.0-12.0-2.19","congruent","2"
"3214","jsPsych/img/25_big.jpg","f","test","up","0","image-keyboard-response","102","300058","0.0-12.0-2.20","congruent","2"
"2133.4000000953674","jsPsych/img/32_big.jpg","f","test","up","0","image-keyboard-response","105","305340","0.0-12.0-2.21","incongruent","2"
"1231.5999999046326","jsPsych/img/10_big.jpg","j","test","down","0","image-keyboard-response","108","309454","0.0-12.0-2.22","incongruent","2"
"1594.2999999523163","jsPsych/img/24_big.jpg","f","test","up","0","image-keyboard-response","111","314913","0.0-12.0-2.23","congruent","2"
"1357.7999999523163","jsPsych/img/26_big.jpg","j","test","up","0","image-keyboard-response","114","318902","0.0-12.0-2.24","congruent","2"
"2334.0999999046326","jsPsych/img/28_big.jpg","j","test","up","0","image-keyboard-response","117","324111","0.0-12.0-2.25","incongruent","2"
"1634.2999999523163","jsPsych/img/29_big.jpg","j","test","up","0","image-keyboard-response","120","328864","0.0-12.0-2.26","incongruent","2"
"2552.399999856949","jsPsych/img/22_big.jpg","f","test","up","0","image-keyboard-response","123","335280","0.0-12.0-2.27","congruent","2"
"1760.0999999046326","jsPsych/img/05_big.jpg","j","test","down","0","image-keyboard-response","126","340664","0.0-12.0-2.28","incongruent","2"
"1322.5999999046326","jsPsych/img/35_big.jpg","f","test","up","0","image-keyboard-response","129","344602","0.0-12.0-2.29","congruent","2"
"1175.7999999523163","jsPsych/img/09_big.jpg","f","test","down","0","image-keyboard-response","132","349410","0.0-12.0-2.30","congruent","2"
"1095.7999999523163","jsPsych/img/03_big.jpg","f","test","down","0","image-keyboard-response","135","353884","0.0-12.0-2.31","congruent","2"
"4048.800000011921","jsPsych/img/29_big.jpg","j","test","up","0","image-keyboard-response","42","156047","0.0-12.0-2.0","incongruent","2"
"5770.199999988079","jsPsych/img/01_big.jpg","f","test","down","0","image-keyboard-response","45","164921","0.0-12.0-2.1","congruent","2"
"6334.699999988079","jsPsych/img/22_big.jpg","f","test","up","0","image-keyboard-response","48","174360","0.0-12.0-2.2","congruent","2"
"6488.599999964237","jsPsych/img/05_big.jpg","j","test","down","0","image-keyboard-response","51","183702","0.0-12.0-2.3","incongruent","2"
"6882.800000011921","jsPsych/img/23_big.jpg","f","test","up","0","image-keyboard-response","54","194689","0.0-12.0-2.4","incongruent","2"
"6083.900000035763","jsPsych/img/25_big.jpg","f","test","up","0","image-keyboard-response","57","203378","0.0-12.0-2.5","congruent","2"
"4916.599999964237","jsPsych/img/18_big.jpg","j","test","down","0","image-keyboard-response","60","211148","0.0-12.0-2.6","incongruent","2"
"9709.300000011921","jsPsych/img/07_big.jpg","j","test","down","0","image-keyboard-response","63","224212","0.0-12.0-2.7","congruent","2"
"4707.300000011921","jsPsych/img/04_big.jpg","f","test","down","0","image-keyboard-response","66","232275","0.0-12.0-2.8","incongruent","2"
"3975.399999976158","jsPsych/img/15_big.jpg","f","test","down","0","image-keyboard-response","69","239605","0.0-12.0-2.9","congruent","2"
"4397.299999952316","jsPsych/img/35_big.jpg","f","test","up","0","image-keyboard-response","72","247356","0.0-12.0-2.10","congruent","2"
"10300.600000023842","jsPsych/img/03_big.jpg","j","test","down","0","image-keyboard-response","75","261261","0.0-12.0-2.11","incongruent","2"
"5281.5","jsPsych/img/21_big.jpg","j","test","up","0","image-keyboard-response","78","269897","0.0-12.0-2.12","congruent","2"
"4636.200000047684","jsPsych/img/14_big.jpg","f","test","down","0","image-keyboard-response","81","278388","0.0-12.0-2.13","congruent","2"
"6273.800000011921","jsPsych/img/32_big.jpg","f","test","up","0","image-keyboard-response","84","287516","0.0-12.0-2.14","congruent","2"
"5461.900000035763","jsPsych/img/24_big.jpg","f","test","up","0","image-keyboard-response","87","295834","0.0-12.0-2.15","incongruent","2"
"6256","jsPsych/img/26_big.jpg","j","test","up","0","image-keyboard-response","90","305694","0.0-12.0-2.16","incongruent","2"
"5308.800000011921","jsPsych/img/12_big.jpg","f","test","down","0","image-keyboard-response","93","314858","0.0-12.0-2.17","congruent","2"
"3609.100000023842","jsPsych/img/16_big.jpg","j","test","down","0","image-keyboard-response","96","322572","0.0-12.0-2.18","incongruent","2"
"4336.199999988079","jsPsych/img/33_big.jpg","f","test","up","0","image-keyboard-response","99","330262","0.0-12.0-2.19","congruent","2"
"8972.300000011921","jsPsych/img/10_big.jpg","j","test","down","0","image-keyboard-response","102","342588","0.0-12.0-2.20","incongruent","2"
"3795.5","jsPsych/img/34_big.jpg","f","test","up","0","image-keyboard-response","105","350488","0.0-12.0-2.21","incongruent","2"
"1105.5","jsPsych/img/27_big.jpg","j","test","up","0","image-keyboard-response","108","355446","0.0-12.0-2.22","incongruent","2"
"2017.6000000238419","jsPsych/img/30_big.jpg","j","test","up","0","image-keyboard-response","111","361569","0.0-12.0-2.23","incongruent","2"
"3544.5","jsPsych/img/13_big.jpg","j","test","down","0","image-keyboard-response","114","367716","0.0-12.0-2.24","congruent","2"
"4376.799999952316","jsPsych/img/19_big.jpg","f","test","up","0","image-keyboard-response","117","375197","0.0-12.0-2.25","incongruent","2"
"4136.300000011921","jsPsych/img/09_big.jpg","f","test","down","0","image-keyboard-response","120","381938","0.0-12.0-2.26","congruent","2"
"4400.399999976158","jsPsych/img/36_big.jpg","f","test","up","0","image-keyboard-response","123","389193","0.0-12.0-2.27","congruent","2"
"5567.099999964237","jsPsych/img/28_big.jpg","j","test","up","0","image-keyboard-response","126","398364","0.0-12.0-2.28","congruent","2"
"3377.099999964237","jsPsych/img/02_big.jpg","f","test","down","0","image-keyboard-response","129","404845","0.0-12.0-2.29","incongruent","2"
"3616.900000035763","jsPsych/img/11_big.jpg","j","test","down","0","image-keyboard-response","132","412067","0.0-12.0-2.30","congruent","2"
"10997.900000035763","jsPsych/img/06_big.jpg","j","test","down","0","image-keyboard-response","135","427170","0.0-12.0-2.31","incongruent","2"
"2834.699999999255","jsPsych/img/18_big.jpg","f","test","down","0","image-keyboard-response","42","151127","0.0-12.0-2.0","incongruent","2"
"3087.10000000149","jsPsych/img/06_big.jpg","f","test","down","0","image-keyboard-response","45","157572","0.0-12.0-2.1","congruent","2"
"2131.39999999851","jsPsych/img/04_big.jpg","f","test","down","0","image-keyboard-response","48","163566","0.0-12.0-2.2","congruent","2"
"3400.300000000745","jsPsych/img/28_big.jpg","j","test","up","0","image-keyboard-response","51","169577","0.0-12.0-2.3","incongruent","2"
"2624.800000000745","jsPsych/img/30_big.jpg","j","test","up","0","image-keyboard-response","54","175562","0.0-12.0-2.4","incongruent","2"
"2218.599999997765","jsPsych/img/09_big.jpg","f","test","down","0","image-keyboard-response","57","180386","0.0-12.0-2.5","congruent","2"
"1904.5","jsPsych/img/25_big.jpg","j","test","up","0","image-keyboard-response","60","186403","0.0-12.0-2.6","incongruent","2"
"1233.5","jsPsych/img/03_big.jpg","f","test","down","0","image-keyboard-response","63","191496","0.0-12.0-2.7","congruent","2"
"1331.2000000029802","jsPsych/img/36_big.jpg","f","test","up","0","image-keyboard-response","66","196688","0.0-12.0-2.8","congruent","2"
"1388.699999999255","jsPsych/img/12_big.jpg","j","test","down","0","image-keyboard-response","69","200686","0.0-12.0-2.9","congruent","2"
"977.8000000007451","jsPsych/img/29_big.jpg","f","test","up","0","image-keyboard-response","72","204529","0.0-12.0-2.10","congruent","2"
"855.0999999977648","jsPsych/img/33_big.jpg","f","test","up","0","image-keyboard-response","75","208995","0.0-12.0-2.11","incongruent","2"
"669.0999999977648","jsPsych/img/19_big.jpg","f","test","up","0","image-keyboard-response","78","213772","0.0-12.0-2.12","incongruent","2"
"225.19999999925494","jsPsych/img/05_big.jpg","j","test","down","0","image-keyboard-response","81","218109","0.0-12.0-2.13","congruent","2"
"379.19999999925494","jsPsych/img/21_big.jpg","j","test","up","0","image-keyboard-response","84","221098","0.0-12.0-2.14","congruent","2"
"290.19999999925494","jsPsych/img/34_big.jpg","j","test","up","0","image-keyboard-response","87","225247","0.0-12.0-2.15","incongruent","2"
"697.8999999985099","jsPsych/img/26_big.jpg","f","test","up","0","image-keyboard-response","90","229800","0.0-12.0-2.16","congruent","2"
"666.1000000014901","jsPsych/img/27_big.jpg","f","test","up","0","image-keyboard-response","93","233324","0.0-12.0-2.17","congruent","2"
"499.69999999925494","jsPsych/img/23_big.jpg","f","test","up","0","image-keyboard-response","96","236680","0.0-12.0-2.18","incongruent","2"
"429.8999999985099","jsPsych/img/24_big.jpg","j","test","up","0","image-keyboard-response","99","241218","0.0-12.0-2.19","incongruent","2"
"688.6000000014901","jsPsych/img/01_big.jpg","j","test","down","0","image-keyboard-response","102","244512","0.0-12.0-2.20","congruent","2"
"457.5","jsPsych/img/02_big.jpg","j","test","down","0","image-keyboard-response","105","247828","0.0-12.0-2.21","congruent","2"
"481.69999999925494","jsPsych/img/11_big.jpg","j","test","down","0","image-keyboard-response","108","251666","0.0-12.0-2.22","incongruent","2"
"137.69999999925494","jsPsych/img/13_big.jpg","j","test","down","0","image-keyboard-response","111","254411","0.0-12.0-2.23","congruent","2"
"311.8999999985099","jsPsych/img/22_big.jpg","j","test","up","0","image-keyboard-response","114","257331","0.0-12.0-2.24","incongruent","2"
"382.69999999925494","jsPsych/img/16_big.jpg","f","test","down","0","image-keyboard-response","117","260321","0.0-12.0-2.25","incongruent","2"
"1003","jsPsych/img/35_big.jpg","j","test","up","0","image-keyboard-response","120","264685","0.0-12.0-2.26","incongruent","2"
"151.09999999776483","jsPsych/img/07_big.jpg","j","test","down","0","image-keyboard-response","123","268947","0.0-12.0-2.27","incongruent","2"
"181.10000000149012","jsPsych/img/15_big.jpg","j","test","down","0","image-keyboard-response","126","271986","0.0-12.0-2.28","incongruent","2"
"1109.300000000745","jsPsych/img/32_big.jpg","f","test","up","0","image-keyboard-response","129","276452","0.0-12.0-2.29","congruent","2"
"266.79999999701977","jsPsych/img/14_big.jpg","j","test","down","0","image-keyboard-response","132","280326","0.0-12.0-2.30","congruent","2"
"75.39999999850988","jsPsych/img/10_big.jpg","j","test","down","0","image-keyboard-response","135","284257","0.0-12.0-2.31","congruent","2"
"7663.600000023842","jsPsych/img/24_big.jpg","j","test","up","0","image-keyboard-response","42","364430","0.0-12.0-2.0","congruent","2"
"5295.399999976158","jsPsych/img/35_big.jpg","f","test","up","0","image-keyboard-response","45","372580","0.0-12.0-2.1","incongruent","2"
"3701.100000023842","jsPsych/img/02_big.jpg","f","test","down","0","image-keyboard-response","48","378893","0.0-12.0-2.2","congruent","2"
"3111.899999976158","jsPsych/img/03_big.jpg","j","test","down","0","image-keyboard-response","51","386118","0.0-12.0-2.3","incongruent","2"
"3639.7000000476837","jsPsych/img/15_big.jpg","j","test","down","0","image-keyboard-response","54","392622","0.0-12.0-2.4","incongruent","2"
"3942.5","jsPsych/img/33_big.jpg","f","test","up","0","image-keyboard-response","57","400180","0.0-12.0-2.5","incongruent","2"
"4249.5","jsPsych/img/30_big.jpg","f","test","up","0","image-keyboard-response","60","408291","0.0-12.0-2.6","incongruent","2"
"3331.7999999523163","jsPsych/img/28_big.jpg","j","test","up","0","image-keyboard-response","63","415484","0.0-12.0-2.7","incongruent","2"
"1595.7999999523163","jsPsych/img/21_big.jpg","f","test","up","0","image-keyboard-response","66","419939","0.0-12.0-2.8","congruent","2"
"1984.5","jsPsych/img/27_big.jpg","j","test","up","0","image-keyboard-response","69","425789","0.0-12.0-2.9","congruent","2"
"2046.6000000238419","jsPsych/img/07_big.jpg","j","test","down","0","image-keyboard-response","72","430946","0.0-12.0-2.10","incongruent","2"
"3419","jsPsych/img/09_big.jpg","f","test","down","0","image-keyboard-response","75","437225","0.0-12.0-2.11","incongruent","2"
"2396.399999976158","jsPsych/img/05_big.jpg","f","test","down","0","image-keyboard-response","78","442983","0.0-12.0-2.12","congruent","2"
"2341","jsPsych/img/06_big.jpg","f","test","down","0","image-keyboard-response","81","449435","0.0-12.0-2.13","congruent","2"
"1653.1000000238419","jsPsych/img/10_big.jpg","j","test","down","0","image-keyboard-response","84","455199","0.0-12.0-2.14","congruent","2"
"16060.700000047684","jsPsych/img/14_big.jpg","j","test","down","0","image-keyboard-response","87","474620","0.0-12.0-2.15","congruent","2"
"2199.5999999046326","jsPsych/img/25_big.jpg","j","test","up","0","image-keyboard-response","90","480678","0.0-12.0-2.16","incongruent","2"
"2290.7999999523163","jsPsych/img/22_big.jpg","f","test","up","0","image-keyboard-response","93","486336","0.0-12.0-2.17","incongruent","2"
"13547.299999952316","jsPsych/img/04_big.jpg","f","test","down","0","image-keyboard-response","96","503745","0.0-12.0-2.18","congruent","2"
"1898.1999999284744","jsPsych/img/34_big.jpg","f","test","up","0","image-keyboard-response","99","508253","0.0-12.0-2.19","congruent","2"
"1770.2999999523163","jsPsych/img/36_big.jpg","j","test","up","0","image-keyboard-response","102","513638","0.0-12.0-2.20","incongruent","2"
"20513","jsPsych/img/32_big.jpg","f","test","up","0","image-keyboard-response","105","538256","0.0-12.0-2.21","congruent","2"
"1921.3999999761581","jsPsych/img/23_big.jpg","j","test","up","0","image-keyboard-response","108","543789","0.0-12.0-2.22","incongruent","2"
"1294.7999999523163","jsPsych/img/19_big.jpg","f","test","up","0","image-keyboard-response","111","548445","0.0-12.0-2.23","congruent","2"
"2699.7999999523163","jsPsych/img/12_big.jpg","j","test","down","0","image-keyboard-response","114","554252","0.0-12.0-2.24","incongruent","2"
"1481.3999999761581","jsPsych/img/13_big.jpg","j","test","down","0","image-keyboard-response","117","558594","0.0-12.0-2.25","incongruent","2"
"781.7000000476837","jsPsych/img/26_big.jpg","f","test","up","0","image-keyboard-response","120","562989","0.0-12.0-2.26","incongruent","2"
"2694.2000000476837","jsPsych/img/01_big.jpg","f","test","down","0","image-keyboard-response","123","568545","0.0-12.0-2.27","incongruent","2"
"1682","jsPsych/img/18_big.jpg","j","test","down","0","image-keyboard-response","126","572837","0.0-12.0-2.28","incongruent","2"
"29267.199999928474","jsPsych/img/16_big.jpg","f","test","down","0","image-keyboard-response","129","604962","0.0-12.0-2.29","incongruent","2"
"2239.899999976158","jsPsych/img/11_big.jpg","j","test","down","0","image-keyboard-response","132","610815","0.0-12.0-2.30","incongruent","2"
"1902.1000000238419","jsPsych/img/29_big.jpg","f","test","up","0","image-keyboard-response","135","615577","0.0-12.0-2.31","incongruent","2"
"3395.2000002861023","jsPsych/img/22_big.jpg","f","test","up","0","image-keyboard-response","42","171897","0.0-12.0-2.0","congruent","2"
"3864.7999997138977","jsPsych/img/11_big.jpg","j","test","down","0","image-keyboard-response","45","178387","0.0-12.0-2.1","incongruent","2"
"9847.200000286102","jsPsych/img/04_big.jpg","f","test","down","0","image-keyboard-response","48","190851","0.0-12.0-2.2","congruent","2"
"2129.9000000953674","jsPsych/img/01_big.jpg","f","test","down","0","image-keyboard-response","51","195609","0.0-12.0-2.3","congruent","2"
"2236.699999809265","jsPsych/img/07_big.jpg","f","test","down","0","image-keyboard-response","54","201204","0.0-12.0-2.4","congruent","2"
"3536.5","jsPsych/img/06_big.jpg","j","test","down","0","image-keyboard-response","57","207365","0.0-12.0-2.5","incongruent","2"
"2569.9000000953674","jsPsych/img/23_big.jpg","f","test","up","0","image-keyboard-response","60","213555","0.0-12.0-2.6","incongruent","2"
"1840.0999999046326","jsPsych/img/34_big.jpg","j","test","up","0","image-keyboard-response","63","218776","0.0-12.0-2.7","congruent","2"
"2213.9000000953674","jsPsych/img/32_big.jpg","f","test","up","0","image-keyboard-response","66","224099","0.0-12.0-2.8","incongruent","2"
"2110.2000002861023","jsPsych/img/14_big.jpg","f","test","down","0","image-keyboard-response","69","229335","0.0-12.0-2.9","congruent","2"
"2302.7999997138977","jsPsych/img/12_big.jpg","j","test","down","0","image-keyboard-response","72","235510","0.0-12.0-2.10","congruent","2"
"2503.5999999046326","jsPsych/img/27_big.jpg","j","test","up","0","image-keyboard-response","75","241138","0.0-12.0-2.11","incongruent","2"
"2723","jsPsych/img/21_big.jpg","f","test","up","0","image-keyboard-response","78","247230","0.0-12.0-2.12","congruent","2"
"1805.5","jsPsych/img/09_big.jpg","j","test","down","0","image-keyboard-response","81","251909","0.0-12.0-2.13","congruent","2"
"1620.1999998092651","jsPsych/img/10_big.jpg","f","test","down","0","image-keyboard-response","84","257156","0.0-12.0-2.14","congruent","2"
"2194.300000190735","jsPsych/img/25_big.jpg","f","test","up","0","image-keyboard-response","87","262722","0.0-12.0-2.15","congruent","2"
"1519.9000000953674","jsPsych/img/30_big.jpg","j","test","up","0","image-keyboard-response","90","267869","0.0-12.0-2.16","incongruent","2"
"3429.1000003814697","jsPsych/img/33_big.jpg","j","test","up","0","image-keyboard-response","93","274176","0.0-12.0-2.17","congruent","2"
"1607.8000001907349","jsPsych/img/28_big.jpg","j","test","up","0","image-keyboard-response","96","278653","0.0-12.0-2.18","incongruent","2"
"6974.400000095367","jsPsych/img/16_big.jpg","f","test","down","0","image-keyboard-response","99","288748","0.0-12.0-2.19","congruent","2"
"2203","jsPsych/img/29_big.jpg","f","test","up","0","image-keyboard-response","102","293578","0.0-12.0-2.20","incongruent","2"
"2691.8999996185303","jsPsych/img/13_big.jpg","f","test","down","0","image-keyboard-response","105","299641","0.0-12.0-2.21","congruent","2"
"4016.4000000953674","jsPsych/img/35_big.jpg","f","test","up","0","image-keyboard-response","108","307534","0.0-12.0-2.22","incongruent","2"
"3743.9000000953674","jsPsych/img/18_big.jpg","f","test","down","0","image-keyboard-response","111","314896","0.0-12.0-2.23","incongruent","2"
"1646.6999998092651","jsPsych/img/15_big.jpg","j","test","down","0","image-keyboard-response","114","320676","0.0-12.0-2.24","congruent","2"
"1468","jsPsych/img/26_big.jpg","f","test","up","0","image-keyboard-response","117","325501","0.0-12.0-2.25","incongruent","2"
"1069.0999999046326","jsPsych/img/03_big.jpg","j","test","down","0","image-keyboard-response","120","329952","0.0-12.0-2.26","congruent","2"
"1866.4000000953674","jsPsych/img/19_big.jpg","j","test","up","0","image-keyboard-response","123","335449","0.0-12.0-2.27","congruent","2"
"1136.1999998092651","jsPsych/img/24_big.jpg","j","test","up","0","image-keyboard-response","126","340455","0.0-12.0-2.28","congruent","2"
"1285.5","jsPsych/img/36_big.jpg","j","test","up","0","image-keyboard-response","129","345366","0.0-12.0-2.29","incongruent","2"
"3794.9000000953674","jsPsych/img/05_big.jpg","f","test","down","0","image-keyboard-response","132","353278","0.0-12.0-2.30","incongruent","2"
"1981.5","jsPsych/img/02_big.jpg","f","test","down","0","image-keyboard-response","135","358634","0.0-12.0-2.31","incongruent","2"
